aX,aY,aZ
-0.960,-0.094,-0.323
-0.950,-0.101,-0.327
-0.948,-0.097,-0.332
-0.941,-0.096,-0.337
-0.940,-0.100,-0.345
-0.941,-0.098,-0.353
-0.937,-0.094,-0.370
-0.927,-0.101,-0.387
-0.915,-0.102,-0.403
-0.912,-0.101,-0.409
-0.906,-0.102,-0.412
-0.902,-0.097,-0.415
-0.898,-0.101,-0.420
-0.898,-0.100,-0.427
-0.898,-0.095,-0.427
-0.898,-0.098,-0.427
-0.896,-0.100,-0.424
-0.899,-0.099,-0.426
-0.901,-0.100,-0.425
-0.901,-0.097,-0.424
-0.903,-0.100,-0.419
-0.905,-0.100,-0.413
-0.911,-0.099,-0.413
-0.911,-0.102,-0.416
-0.916,-0.109,-0.419
-0.907,-0.097,-0.410
-0.909,-0.095,-0.406
-0.904,-0.095,-0.411
-0.903,-0.095,-0.422
-0.901,-0.096,-0.428
-0.897,-0.093,-0.431
-0.898,-0.096,-0.433
-0.897,-0.097,-0.432
-0.892,-0.096,-0.437
-0.892,-0.094,-0.444
-0.894,-0.086,-0.444
-0.903,-0.083,-0.432
-0.901,-0.090,-0.418
-0.898,-0.093,-0.407
-0.904,-0.087,-0.401
-0.908,-0.096,-0.400
-0.912,-0.100,-0.402
-0.918,-0.089,-0.396
-0.921,-0.089,-0.395
-0.921,-0.082,-0.383
-0.921,-0.084,-0.375
-0.923,-0.079,-0.366
-0.929,-0.082,-0.366
-0.933,-0.090,-0.367
-0.933,-0.094,-0.367
-0.932,-0.098,-0.366
-0.934,-0.095,-0.362
-0.940,-0.094,-0.356
-0.939,-0.093,-0.359
-0.936,-0.097,-0.364
-0.931,-0.098,-0.371
-0.926,-0.095,-0.371
-0.922,-0.083,-0.385
-0.918,-0.082,-0.394
-0.915,-0.091,-0.403
-0.914,-0.092,-0.405
-0.913,-0.091,-0.410
-0.911,-0.089,-0.414
-0.907,-0.085,-0.420
-0.908,-0.088,-0.423
-0.908,-0.081,-0.421
-0.905,-0.073,-0.421
-0.904,-0.073,-0.423
-0.907,-0.074,-0.420
-0.905,-0.065,-0.420
-0.908,-0.061,-0.419
-0.909,-0.059,-0.422
-0.912,-0.056,-0.424
-0.910,-0.055,-0.419
-0.910,-0.056,-0.417
-0.906,-0.053,-0.420
-0.902,-0.050,-0.429
-0.899,-0.045,-0.440
-0.899,-0.031,-0.452
-0.900,-0.016,-0.465
-0.883,-0.004,-0.478
-0.874,-0.008,-0.484
-0.879,-0.010,-0.482
-0.880,-0.001,-0.481
-0.897,0.007,-0.479
-0.915,-0.003,-0.476
-0.918,-0.015,-0.471
-0.915,-0.020,-0.463
-0.906,-0.015,-0.461
-0.906,-0.011,-0.465
-0.927,-0.003,-0.493
-0.923,0.001,-0.519
-0.925,0.012,-0.532
-0.929,0.010,-0.541
-0.911,0.009,-0.559
-0.904,0.042,-0.571
-0.905,0.072,-0.639
-0.897,0.069,-0.669
-0.910,0.055,-0.648
-0.905,0.033,-0.641
-0.879,-0.012,-0.626
-0.835,-0.013,-0.640
-0.803,0.028,-0.687
-0.778,0.041,-0.690
-0.833,0.093,-0.723
-0.924,0.166,-0.789
-0.795,0.064,-0.824
-0.739,0.089,-0.936
-0.773,0.223,-0.978
-0.776,0.181,-0.861
-0.769,0.190,-0.838
-0.734,0.027,-0.803
-0.672,0.021,-0.828
-0.660,0.060,-0.796
-0.595,0.209,-0.734
-0.569,0.093,-0.777
-0.475,0.129,-0.742
-0.459,0.112,-0.754
-0.362,0.194,-0.680
-0.365,0.196,-0.734
-0.304,0.180,-0.702
-0.277,0.191,-0.730
-0.264,0.152,-0.760
-0.222,0.150,-0.750
-0.171,0.149,-0.756
-0.162,0.194,-0.742
-0.181,0.244,-0.737
-0.191,0.236,-0.705
-0.187,0.239,-0.696
-0.192,0.264,-0.770
-0.226,0.289,-0.760
-0.217,0.311,-0.687
-0.256,0.470,-0.575
-0.341,0.754,-0.696
-0.397,0.949,-0.876
-0.711,0.572,-1.568
-0.438,0.235,-0.594
-0.312,0.341,-0.674
-0.181,0.268,-0.916
-0.406,0.154,-0.709
-0.616,0.419,-0.646
-0.938,0.028,-0.909
-0.771,0.043,-0.909
-0.672,0.019,-0.838
-0.732,-0.012,-0.705
-0.818,-0.044,-0.641
-0.834,-0.110,-0.678
-0.866,-0.140,-0.793
-0.816,-0.059,-0.769
-0.801,-0.021,-0.627
-0.823,-0.069,-0.689
-0.840,-0.095,-0.641
-0.866,-0.106,-0.637
-0.864,-0.096,-0.634
-0.859,-0.098,-0.603
-0.870,-0.083,-0.587
-0.841,-0.077,-0.566
-0.815,-0.092,-0.545
-0.774,-0.094,-0.541
-0.793,-0.082,-0.542
-0.765,-0.099,-0.562
-0.746,-0.095,-0.589
-0.767,-0.098,-0.588
-0.727,-0.096,-0.588
-0.669,-0.076,-0.604
-0.710,-0.093,-0.555
-0.780,-0.080,-0.456
-0.805,-0.235,-0.283
-0.692,-0.012,-0.424
-0.796,-0.262,-0.570
-0.779,-0.279,-0.523
-0.801,-0.244,-0.446
-0.790,-0.251,-0.435
-0.812,-0.175,-0.547
-0.791,-0.183,-0.598
-0.868,-0.081,-0.520
-0.922,-0.055,-0.485
-0.854,-0.162,-0.426
-0.827,-0.275,-0.501
-0.891,-0.298,-0.427
-0.960,-0.255,-0.434
-1.090,-0.211,-0.491
-1.168,-0.212,-0.627
-1.223,-0.206,-0.666
-1.332,-0.147,-0.645
-1.448,-0.088,-0.649
-1.456,-0.074,-0.643
-1.309,-0.015,-0.584
-1.133,0.008,-0.540
-1.052,0.036,-0.501
-0.846,0.067,-0.453
-1.005,0.037,-0.488
-1.050,-0.044,-0.455
-0.895,0.069,-0.551
-0.777,-0.163,-0.785
-0.718,-0.122,-0.740
-0.687,-0.038,-0.502
-0.723,-0.033,-0.435
-0.745,0.005,-0.506
-0.666,-0.128,-0.592
-0.645,-0.187,-0.680
-0.686,-0.110,-0.598
-0.807,0.180,-0.589
-0.742,0.196,-0.493
-0.756,0.109,-0.461
-0.724,0.058,-0.499
-0.761,0.128,-0.505
-0.712,0.146,-0.408
-0.655,0.131,-0.405
-0.596,0.088,-0.593
-0.582,0.248,-0.671
-0.566,0.123,-0.745
-0.506,0.086,-0.701
-0.483,0.058,-0.697
-0.440,0.081,-0.719
-0.405,0.100,-0.762
-0.405,0.127,-0.765
-0.403,0.091,-0.755
-0.407,0.112,-0.745
-0.406,0.127,-0.775
-0.395,0.173,-0.671
-0.380,0.170,-0.608
-0.364,0.146,-0.621
-0.325,0.095,-0.769
-0.314,0.085,-0.885
-0.327,0.095,-0.926
-0.327,0.114,-0.893
-0.309,0.165,-0.717
-0.309,0.168,-0.637
-0.323,0.162,-0.553
-0.321,0.218,-0.526
-0.304,0.231,-0.551
-0.408,0.325,-0.849
-0.645,0.124,-1.742
-1.020,-0.223,-1.996
-0.731,-0.033,-1.257
-0.527,-0.217,-0.718
-0.459,-0.110,-0.485
-0.436,0.670,-0.487
-0.691,-0.197,-0.515
-0.851,-0.189,-0.723
-1.097,-0.272,-1.034
-0.897,-0.057,-1.178
-0.715,0.186,-1.009
-0.707,-0.032,-0.555
-0.675,-0.137,-0.537
-0.718,-0.188,-0.586
-0.855,-0.232,-0.728
-0.828,-0.291,-0.758
-0.768,-0.246,-0.828
-0.810,-0.165,-0.646
-0.779,-0.118,-0.410
-0.777,-0.064,-0.476
-0.784,-0.061,-0.485
-0.767,-0.034,-0.501
-0.741,-0.097,-0.556
-0.703,-0.164,-0.538
-0.633,-0.203,-0.538
-0.703,-0.200,-0.587
-0.752,-0.148,-0.636
-0.949,-0.182,-0.326
-0.936,-0.242,-0.330
-0.792,-0.260,-0.516
-0.811,-0.211,-0.542
-0.848,-0.133,-0.544
-0.923,-0.138,-0.477
-0.854,-0.142,-0.516
-0.848,-0.158,-0.523
-0.843,-0.260,-0.479
-0.822,-0.324,-0.501
-0.793,-0.356,-0.506
-0.788,-0.347,-0.552
-0.892,-0.359,-0.623
-0.911,-0.366,-0.627
-1.020,-0.301,-0.616
-1.366,-0.264,-0.581
-1.492,-0.264,-0.531
-1.515,-0.216,-0.457
-1.408,-0.108,-0.514
-1.352,-0.023,-0.592
-1.237,0.025,-0.699
-1.030,-0.007,-0.701
-0.961,-0.070,-0.680
-1.030,-0.058,-0.589
-1.156,-0.142,-0.541
-1.236,-0.181,-0.488
-0.903,-0.111,-0.618
-0.654,-0.461,-0.799
-0.603,-0.532,-0.768
-0.683,-0.336,-0.656
-0.548,-0.223,-0.623
-0.522,-0.313,-0.552
-0.666,-0.314,-0.387
-0.609,-0.175,-0.465
-0.585,-0.073,-0.381
-0.605,0.042,-0.213
-0.628,-0.022,-0.212
-0.687,-0.077,-0.242
-0.654,-0.157,-0.388
-0.617,-0.275,-0.372
-0.595,-0.285,-0.408
-0.607,-0.267,-0.598
-0.607,-0.267,-0.617
-0.557,-0.267,-0.564
-0.542,-0.195,-0.444
-0.560,-0.223,-0.453
-0.548,-0.211,-0.466
-0.537,-0.245,-0.512
-0.540,-0.360,-0.519
-0.536,-0.377,-0.530
-0.564,-0.353,-0.598
-0.619,-0.281,-0.652
-0.630,-0.277,-0.642
-0.666,-0.308,-0.746
-0.667,-0.518,-0.850
-0.660,-0.325,-0.569
-0.666,-0.248,-0.500
-0.685,-0.163,-0.303
-0.630,0.024,-0.951
-0.682,-0.045,-0.849
-0.725,-0.296,-0.687
-0.775,-0.488,-0.593
-0.771,-0.520,-0.526
-0.742,-0.421,-0.469
-0.767,-0.325,-0.392
-0.976,-0.201,-0.569
-1.490,-0.196,-1.093
-0.538,-1.276,-1.643
-0.459,-0.990,-1.368
-0.785,-0.391,-0.160
-0.730,0.296,0.102
-0.674,0.416,0.061
-0.690,-0.288,-0.051
-0.835,-0.941,-0.443
-0.691,-0.851,-0.480
-0.776,-0.622,-0.851
-0.916,-0.004,-0.720
-0.922,-0.336,-0.305
-0.809,-0.299,-0.184
-0.898,-0.376,-0.368
-0.874,-0.393,-0.395
-0.861,-0.246,-0.485
-0.847,-0.258,-0.449
-0.806,-0.325,-0.347
-0.870,-0.141,-0.296
-0.640,-0.435,-0.514
-0.643,-0.455,-0.576
-0.781,-0.491,-0.478
-1.045,0.022,-0.368
-1.044,-0.213,-0.504
-0.896,-0.170,-0.422
-0.913,-0.215,-0.414
-0.860,-0.234,-0.457
-0.794,-0.275,-0.468
-0.870,-0.322,-0.418
-0.845,-0.316,-0.405
-0.849,-0.215,-0.380
-0.905,-0.228,-0.422
-0.870,-0.252,-0.443
-0.863,-0.278,-0.494
-0.866,-0.321,-0.447
-0.841,-0.324,-0.423
-0.832,-0.346,-0.377
-0.842,-0.392,-0.401
-0.847,-0.390,-0.401
-0.935,-0.357,-0.368
-1.010,-0.347,-0.325
-1.004,-0.345,-0.334
-0.983,-0.349,-0.458
-0.982,-0.360,-0.574
-0.978,-0.374,-0.619
-1.050,-0.346,-0.656
-1.193,-0.311,-0.697
-1.264,-0.291,-0.711
-1.434,-0.199,-0.745
-1.414,-0.028,-0.765
-1.342,0.044,-0.801
-1.079,0.063,-0.770
-0.961,-0.035,-0.606
-1.178,-0.135,-0.563
-1.257,-0.137,-0.702
-1.054,-0.308,-0.498
-0.900,-0.479,-0.476
-0.735,-0.457,-0.487
-0.851,-0.164,-0.529
-0.900,-0.240,-0.921
-0.937,-0.141,-0.802
-0.961,-0.043,-0.461
-0.661,-0.034,-0.007
-0.660,-0.001,-0.195
-0.566,0.072,-0.298
-0.563,-0.015,-0.337
-0.541,-0.061,-0.388
-0.441,-0.130,-0.355
-0.387,-0.142,-0.414
-0.293,-0.262,-0.522
-0.277,-0.266,-0.564
-0.252,-0.224,-0.659
-0.274,-0.245,-0.755
-0.260,-0.257,-0.733
-0.291,-0.199,-0.688
-0.377,-0.099,-0.710
-0.427,-0.062,-0.722
-0.428,-0.068,-0.683
-0.409,-0.030,-0.712
-0.404,0.013,-0.748
-0.390,-0.036,-0.806
-0.468,-0.162,-0.898
-0.531,-0.214,-1.016
-0.633,-0.249,-1.101
-0.708,-0.232,-0.992
-0.778,-0.216,-0.852
-0.725,-0.408,-0.733
-0.673,-0.366,-0.930
-0.709,-0.414,-0.913
-0.753,-0.492,-0.840
-0.905,-0.381,-0.706
-0.884,-0.287,-0.678
-0.919,-0.502,-0.749
-1.014,-0.474,-0.882
-0.839,-0.400,-0.719
-0.627,-0.223,-0.354
-0.687,-0.291,-0.344
-0.759,-0.282,-0.317
-0.924,-0.387,-0.594
-0.873,-0.568,-1.228
-0.532,-0.359,-1.066
-0.634,-0.099,-0.468
-0.785,-0.113,-0.448
-0.803,-0.134,-0.456
-0.769,-0.112,-0.523
-0.727,-0.136,-0.550
-0.697,-0.148,-0.513
-0.647,-0.232,-0.540
-0.693,-0.277,-0.521
-0.708,-0.249,-0.543
-0.749,-0.238,-0.625
-0.767,-0.263,-0.567
-0.794,-0.247,-0.551
-0.893,-0.282,-0.343
-0.849,-0.188,-0.452
-0.793,-0.273,-0.474
-0.837,-0.258,-0.415
-0.830,-0.268,-0.454
-0.899,-0.252,-0.446
-0.814,-0.248,-0.478
-0.799,-0.244,-0.513
-0.821,-0.237,-0.521
-0.874,-0.241,-0.500
-0.898,-0.204,-0.465
-0.894,-0.223,-0.448
-0.862,-0.287,-0.498
-0.829,-0.324,-0.519
-0.820,-0.328,-0.527
-0.859,-0.288,-0.519
-0.933,-0.297,-0.486
-0.961,-0.310,-0.498
-1.044,-0.291,-0.533
-1.139,-0.293,-0.567
-1.171,-0.296,-0.569
-1.241,-0.283,-0.561
-1.274,-0.216,-0.504
-1.288,-0.171,-0.503
-1.296,-0.072,-0.571
-1.225,-0.005,-0.646
-1.128,0.003,-0.616
-1.007,0.021,-0.522
-1.075,-0.055,-0.488
-1.039,-0.064,-0.486
-0.972,-0.012,-0.593
-0.842,-0.213,-0.754
-0.754,-0.218,-0.708
-0.721,-0.154,-0.501
-0.748,-0.096,-0.456
-0.730,-0.108,-0.493
-0.688,-0.139,-0.691
-0.648,-0.224,-0.744
-0.673,-0.227,-0.721
-0.860,-0.011,-0.559
-0.754,-0.085,-0.437
-0.682,0.020,-0.354
-0.746,-0.048,-0.461
-0.749,0.090,-0.423
-0.692,-0.003,-0.424
-0.604,-0.153,-0.534
-0.583,-0.178,-0.549
-0.582,-0.119,-0.596
-0.516,-0.072,-0.632
-0.390,-0.119,-0.633
-0.252,-0.219,-0.633
-0.323,-0.264,-0.625
-0.296,-0.222,-0.664
-0.289,-0.214,-0.679
-0.283,-0.138,-0.691
-0.284,-0.001,-0.540
-0.280,0.080,-0.561
-0.290,0.041,-0.537
-0.258,-0.083,-0.549
-0.267,-0.172,-0.576
-0.325,-0.273,-0.720
-0.347,-0.145,-0.834
-0.304,-0.132,-0.793
-0.447,-0.166,-0.989
-0.688,-0.443,-1.359
-0.916,-0.534,-1.542
-1.033,-0.436,-1.489
-0.728,-0.295,-0.728
-0.650,-0.036,-0.559
-0.551,-0.015,-0.252
-0.717,-0.524,-0.442
-0.888,-0.691,-0.769
-0.980,-0.596,-1.376
-0.813,-0.271,-1.050
-0.813,-0.259,-0.742
-0.725,-0.316,-0.493
-0.720,-0.222,-0.315
-0.706,-0.246,-0.273
-0.771,-0.337,-0.300
-0.859,-0.350,-0.648
-0.564,-0.467,-1.197
-0.624,-0.158,-0.464
-0.730,-0.177,-0.420
-0.779,-0.245,-0.458
-0.740,-0.281,-0.488
-0.682,-0.263,-0.542
-0.714,-0.186,-0.639
-0.778,-0.192,-0.612
-0.765,-0.201,-0.577
-0.758,-0.252,-0.555
-0.717,-0.232,-0.478
-0.715,-0.292,-0.490
-0.753,-0.305,-0.473
-0.756,-0.260,-0.442
-0.755,-0.305,-0.506
-0.826,-0.219,-0.513
-0.819,-0.233,-0.485
-0.836,-0.204,-0.384
-0.839,-0.293,-0.410
-0.828,-0.332,-0.366
-0.926,-0.229,-0.391
-0.914,-0.187,-0.427
-0.830,-0.205,-0.494
-0.792,-0.229,-0.547
-0.850,-0.246,-0.544
-0.840,-0.231,-0.511
-0.823,-0.218,-0.494
-0.865,-0.247,-0.479
-0.894,-0.273,-0.432
-0.884,-0.280,-0.428
-0.889,-0.282,-0.474
-0.904,-0.295,-0.576
-0.880,-0.316,-0.548
-0.908,-0.289,-0.527
-0.982,-0.254,-0.533
-1.019,-0.268,-0.519
-1.020,-0.284,-0.543
-1.026,-0.313,-0.630
-1.162,-0.230,-0.733
-1.234,-0.197,-0.774
-1.246,-0.156,-0.781
-1.196,-0.134,-0.761
-1.153,-0.118,-0.731
-1.059,-0.113,-0.609
-1.059,-0.148,-0.548
-1.118,-0.095,-0.558
-1.037,-0.029,-0.683
-0.731,-0.407,-0.698
-0.679,-0.398,-0.708
-0.769,-0.429,-0.662
-0.852,-0.387,-0.623
-0.802,-0.367,-0.658
-0.764,-0.458,-0.757
-0.869,-0.296,-0.598
-0.901,-0.223,-0.319
-0.752,-0.100,-0.365
-0.691,-0.278,-0.342
-0.810,-0.131,-0.469
-0.589,-0.094,-0.567
-0.632,-0.208,-0.342
-0.574,-0.334,-0.296
-0.495,-0.280,-0.382
-0.467,-0.270,-0.417
-0.410,-0.312,-0.447
-0.327,-0.336,-0.466
-0.322,-0.415,-0.555
-0.267,-0.412,-0.380
-0.241,-0.453,-0.471
-0.224,-0.408,-0.483
-0.224,-0.392,-0.470
-0.274,-0.345,-0.471
-0.337,-0.466,-0.508
-0.366,-0.554,-0.599
-0.352,-0.510,-0.539
-0.331,-0.219,-0.559
-0.427,-0.230,-0.898
-0.502,-0.536,-1.396
-1.257,-1.751,-1.622
-0.631,-0.690,-0.400
-0.558,-0.446,-0.354
-0.469,0.052,-0.693
-0.461,-0.233,-0.269
-0.530,-0.488,-0.322
-0.732,-0.943,-0.813
-1.088,-1.133,-0.936
-0.879,-0.784,-0.807
-0.667,-0.438,-0.559
-0.652,-0.527,-0.514
-0.615,-0.497,-0.513
-0.567,-0.528,-0.484
-0.612,-0.605,-0.581
-0.632,-0.621,-0.744
-0.693,-0.554,-0.614
-0.741,-0.457,-0.552
-0.732,-0.407,-0.501
-0.697,-0.377,-0.428
-0.671,-0.393,-0.487
-0.656,-0.387,-0.531
-0.553,-0.443,-0.527
-0.634,-0.295,-0.528
-0.663,-0.259,-0.485
-0.712,-0.337,-0.439
-0.735,-0.299,-0.522
-0.745,-0.286,-0.539
-0.761,-0.307,-0.525
-0.745,-0.336,-0.566
-0.714,-0.317,-0.561
-0.740,-0.305,-0.583
-0.777,-0.271,-0.617
-0.807,-0.242,-0.605
-0.773,-0.284,-0.493
-0.756,-0.198,-0.535
-0.749,-0.239,-0.521
-0.779,-0.221,-0.501
-0.822,-0.236,-0.455
-0.827,-0.236,-0.467
-0.833,-0.252,-0.523
-0.786,-0.335,-0.497
-0.823,-0.265,-0.501
-0.826,-0.251,-0.532
-0.834,-0.229,-0.509
-0.831,-0.253,-0.487
-0.824,-0.282,-0.475
-0.822,-0.272,-0.479
-0.827,-0.290,-0.467
-0.772,-0.395,-0.503
-0.781,-0.418,-0.507
-0.854,-0.309,-0.520
-0.924,-0.212,-0.580
-0.961,-0.209,-0.578
-0.993,-0.299,-0.519
-1.080,-0.354,-0.526
-1.153,-0.264,-0.589
-1.168,-0.284,-0.579
-1.167,-0.176,-0.613
-1.178,-0.116,-0.633
-1.161,-0.056,-0.620
-1.148,0.027,-0.580
-1.035,0.020,-0.605
-0.996,-0.016,-0.648
-0.923,-0.045,-0.676
-0.951,-0.081,-0.735
-0.912,-0.171,-0.763
-0.745,-0.306,-0.631
-0.721,-0.260,-0.525
-0.777,-0.235,-0.478
-0.610,-0.313,-0.719
-0.660,-0.387,-0.812
-0.699,-0.397,-0.819
-0.816,0.014,-0.573
-0.815,0.173,-0.372
-0.782,0.024,-0.294
-0.664,-0.137,-0.483
-0.754,-0.164,-0.604
-0.715,-0.144,-0.614
-0.628,-0.285,-0.621
-0.587,-0.393,-0.578
-0.578,-0.374,-0.612
-0.496,-0.201,-0.597
-0.424,-0.253,-0.573
-0.393,-0.272,-0.561
-0.332,-0.458,-0.581
-0.306,-0.428,-0.564
-0.288,-0.425,-0.588
-0.228,-0.413,-0.561
-0.219,-0.347,-0.625
-0.240,-0.310,-0.632
-0.275,-0.269,-0.658
-0.297,-0.270,-0.614
-0.300,-0.280,-0.605
-0.254,-0.373,-0.606
-0.272,-0.542,-0.838
-0.325,-0.439,-0.752
-0.335,-0.413,-0.670
-0.328,-0.355,-0.597
-0.400,-0.317,-0.739
-0.417,-0.384,-0.860
-0.410,-0.442,-0.832
-0.434,-0.547,-1.119
-0.451,-0.660,-1.196
-0.430,-0.775,-1.030
-0.361,-0.642,-0.793
-0.341,-0.516,-0.668
-0.312,-0.408,-0.567
-0.376,-0.529,-0.697
-0.393,-0.565,-0.785
-0.462,-0.624,-0.856
-0.549,-0.527,-0.843
-0.570,-0.442,-0.838
-0.579,-0.392,-0.681
-0.663,-0.485,-0.685
-0.712,-0.552,-0.650
-0.789,-0.635,-0.761
-0.765,-0.751,-0.636
-0.808,-0.631,-0.772
-0.765,-0.484,-0.739
-0.755,-0.480,-0.681
-0.685,-0.433,-0.614
-0.662,-0.451,-0.472
-0.637,-0.443,-0.461
-0.629,-0.474,-0.430
-0.682,-0.487,-0.421
-0.736,-0.499,-0.592
-0.689,-0.447,-0.627
-0.667,-0.377,-0.596
-0.695,-0.326,-0.631
-0.695,-0.312,-0.670
-0.753,-0.235,-0.514
-0.765,-0.221,-0.624
-0.734,-0.293,-0.508
-0.642,-0.422,-0.552
-0.610,-0.370,-0.594
-0.628,-0.355,-0.603
-0.674,-0.330,-0.610
-0.696,-0.251,-0.683
-0.708,-0.155,-0.721
-0.680,-0.265,-0.644
-0.720,-0.194,-0.597
-0.703,-0.250,-0.585
-0.787,-0.347,-0.568
-0.657,-0.382,-0.516
-0.752,-0.278,-0.438
-0.795,-0.353,-0.504
-0.793,-0.383,-0.524
-0.785,-0.342,-0.428
-0.873,-0.192,-0.443
-0.895,-0.234,-0.487
-0.896,-0.256,-0.470
-0.806,-0.273,-0.485
-0.755,-0.331,-0.542
-0.753,-0.328,-0.545
-0.742,-0.370,-0.558
-0.756,-0.359,-0.540
-0.793,-0.277,-0.511
-0.883,-0.291,-0.406
-0.930,-0.312,-0.353
-0.927,-0.358,-0.359
-0.906,-0.344,-0.402
-0.865,-0.326,-0.512
-0.870,-0.306,-0.541
-1.043,-0.226,-0.664
-1.148,-0.220,-0.649
-1.192,-0.267,-0.642
-1.300,-0.324,-0.604
-1.360,-0.309,-0.584
-1.332,-0.259,-0.587
-1.202,-0.140,-0.573
-1.149,-0.039,-0.556
-1.102,0.048,-0.559
-0.960,0.155,-0.621
-0.901,0.101,-0.743
-0.836,0.012,-0.828
-0.833,-0.166,-0.816
-0.624,-0.317,-0.728
-0.543,-0.345,-0.612
-0.755,-0.075,-0.471
-0.848,0.020,-0.438
-0.768,0.006,-0.471
-0.692,-0.166,-0.662
-0.796,-0.103,-0.598
-0.876,-0.061,-0.612
-0.783,-0.075,-0.496
-0.772,-0.169,-0.417
-0.688,-0.237,-0.359
-0.656,-0.125,-0.496
-0.610,-0.057,-0.562
-0.613,-0.085,-0.589
-0.604,-0.201,-0.627
-0.588,-0.237,-0.615
-0.537,-0.192,-0.658
-0.458,-0.257,-0.683
-0.398,-0.324,-0.635
-0.378,-0.340,-0.631
-0.366,-0.362,-0.706
-0.349,-0.308,-0.728
-0.369,-0.235,-0.716
-0.359,-0.262,-0.738
-0.370,-0.214,-0.688
-0.370,-0.146,-0.694
-0.364,-0.090,-0.708
-0.355,-0.129,-0.719
-0.321,-0.183,-0.775
-0.284,-0.259,-0.861
-0.243,-0.356,-0.868
-0.224,-0.368,-0.880
-0.216,-0.362,-0.881
-0.233,-0.335,-0.831
-0.244,-0.341,-0.833
-0.292,-0.281,-0.826
-0.323,-0.227,-0.810
-0.322,-0.223,-0.788
-0.304,-0.274,-0.764
-0.322,-0.285,-0.793
-0.338,-0.282,-0.796
-0.333,-0.277,-0.775
-0.357,-0.285,-0.829
-0.402,-0.360,-0.933
-0.406,-0.440,-0.980
-0.381,-0.333,-0.950
-0.383,-0.294,-0.935
-0.390,-0.340,-0.921
-0.390,-0.450,-0.929
-0.381,-0.454,-0.917
-0.330,-0.460,-0.904
-0.293,-0.509,-0.836
-0.341,-0.538,-0.757
-0.471,-0.418,-0.805
-0.588,-0.232,-0.772
-0.626,-0.196,-0.791
-0.694,-0.325,-0.779
-0.685,-0.404,-0.734
-0.697,-0.519,-0.788
-0.743,-0.579,-0.821
-0.766,-0.565,-0.760
-0.783,-0.595,-0.699
-0.735,-0.531,-0.763
-0.704,-0.472,-0.703
-0.639,-0.447,-0.715
-0.647,-0.386,-0.555
-0.729,-0.402,-0.434
-0.780,-0.395,-0.425
-0.800,-0.432,-0.461
-0.700,-0.401,-0.608
-0.703,-0.401,-0.585
-0.712,-0.441,-0.591
-0.667,-0.423,-0.613
-0.689,-0.315,-0.537
-0.688,-0.318,-0.538
-0.702,-0.340,-0.545
-0.686,-0.370,-0.548
-0.663,-0.347,-0.578
-0.694,-0.322,-0.580
-0.765,-0.269,-0.568
-0.825,-0.279,-0.450
-0.839,-0.225,-0.503
-0.793,-0.278,-0.565
-0.761,-0.313,-0.562
-0.775,-0.329,-0.513
-0.792,-0.303,-0.447
-0.787,-0.359,-0.419
-0.814,-0.347,-0.410
-0.835,-0.332,-0.467
-0.830,-0.336,-0.474
-0.818,-0.284,-0.406
-0.854,-0.303,-0.468
-0.838,-0.281,-0.467
-0.828,-0.269,-0.477
-0.811,-0.254,-0.503
-0.779,-0.316,-0.490
-0.793,-0.265,-0.500
-0.818,-0.260,-0.518
-0.836,-0.325,-0.484
-0.825,-0.345,-0.480
-0.844,-0.363,-0.487
-0.834,-0.346,-0.500
-0.804,-0.355,-0.501
-0.789,-0.368,-0.471
-0.820,-0.345,-0.437
-0.830,-0.328,-0.435
-0.837,-0.336,-0.475
-0.874,-0.317,-0.506
-0.889,-0.323,-0.513
-0.925,-0.346,-0.495
-0.959,-0.322,-0.466
-0.992,-0.314,-0.463
-1.052,-0.324,-0.504
-1.059,-0.347,-0.527
-1.046,-0.350,-0.553
-1.066,-0.325,-0.587
-1.137,-0.286,-0.592
-1.170,-0.267,-0.586
-1.156,-0.143,-0.626
-1.156,-0.068,-0.618
-1.154,-0.040,-0.603
-1.061,0.003,-0.564
-1.024,-0.058,-0.611
-1.005,-0.054,-0.681
-0.913,-0.085,-0.805
-0.758,-0.170,-0.825
-0.729,-0.308,-0.748
-0.644,-0.306,-0.589
-0.752,-0.188,-0.484
-0.834,-0.061,-0.433
-0.654,-0.181,-0.521
-0.659,-0.305,-0.742
-0.728,-0.308,-0.753
-0.738,0.041,-0.453
-0.902,0.012,-0.412
-0.810,-0.078,-0.320
-0.658,-0.248,-0.313
-0.764,-0.094,-0.652
-0.682,-0.204,-0.551
-0.581,-0.453,-0.619
-0.624,-0.418,-0.607
-0.575,-0.424,-0.645
-0.489,-0.428,-0.635
-0.406,-0.425,-0.621
-0.362,-0.422,-0.600
-0.362,-0.410,-0.543
-0.291,-0.423,-0.407
-0.316,-0.358,-0.541
-0.265,-0.436,-0.618
-0.281,-0.433,-0.619
-0.284,-0.366,-0.610
-0.265,-0.290,-0.612
-0.244,-0.305,-0.598
-0.237,-0.332,-0.629
-0.204,-0.447,-0.655
-0.198,-0.529,-0.720
-0.190,-0.517,-0.766
-0.185,-0.539,-0.781
-0.209,-0.538,-0.716
-0.235,-0.515,-0.673
-0.282,-0.466,-0.639
-0.276,-0.366,-0.583
-0.295,-0.312,-0.581
-0.433,-0.310,-0.875
-0.462,-0.502,-0.982
-0.478,-0.586,-0.998
-0.516,-0.774,-1.213
-0.517,-0.927,-1.010
-0.382,-0.701,-0.867
-0.272,-0.412,-0.601
-0.301,-0.302,-0.521
-0.320,-0.332,-0.535
-0.415,-0.488,-0.769
-0.610,-0.805,-0.826
-0.664,-0.692,-0.820
-0.652,-0.347,-0.750
-0.633,-0.348,-0.673
-0.658,-0.401,-0.631
-0.774,-0.684,-0.467
-0.816,-0.563,-0.751
-0.790,-0.675,-0.741
-0.720,-0.772,-0.835
-0.571,-0.502,-0.597
-0.593,-0.487,-0.511
-0.675,-0.486,-0.465
-0.726,-0.513,-0.467
-0.742,-0.521,-0.505
-0.739,-0.510,-0.544
-0.689,-0.447,-0.507
-0.671,-0.394,-0.462
-0.664,-0.386,-0.441
-0.666,-0.378,-0.498
-0.673,-0.378,-0.529
-0.704,-0.421,-0.603
-0.693,-0.399,-0.535
-0.668,-0.336,-0.498
-0.658,-0.397,-0.509
-0.682,-0.376,-0.509
-0.701,-0.353,-0.521
-0.727,-0.313,-0.540
-0.772,-0.125,-0.548
-0.793,-0.260,-0.516
-0.786,-0.292,-0.529
-0.770,-0.332,-0.592
-0.760,-0.303,-0.581
-0.729,-0.325,-0.573
-0.723,-0.347,-0.585
-0.728,-0.323,-0.583
-0.775,-0.274,-0.553
-0.768,-0.278,-0.526
-0.790,-0.265,-0.507
-0.797,-0.329,-0.481
-0.770,-0.342,-0.519
-0.755,-0.320,-0.549
-0.780,-0.276,-0.556
-0.791,-0.290,-0.514
-0.828,-0.244,-0.504
-0.800,-0.294,-0.507
-0.790,-0.320,-0.517
-0.812,-0.327,-0.496
-0.814,-0.318,-0.477
-0.821,-0.297,-0.476
-0.833,-0.319,-0.471
-0.836,-0.351,-0.447
-0.811,-0.365,-0.448
-0.818,-0.345,-0.446
-0.842,-0.307,-0.422
-0.894,-0.276,-0.405
-0.915,-0.268,-0.407
-0.920,-0.293,-0.408
-0.805,-0.384,-0.491
-0.793,-0.403,-0.536
-0.780,-0.372,-0.633
-0.715,-0.413,-0.665
-0.697,-0.455,-0.667
-0.790,-0.441,-0.610
-0.930,-0.253,-0.566
-1.026,-0.353,-0.558
-1.245,-0.365,-0.500
-1.343,-0.290,-0.490
-1.369,-0.235,-0.509
-1.362,-0.158,-0.561
-1.316,-0.134,-0.615
-1.252,-0.102,-0.618
-1.103,-0.061,-0.589
-0.943,-0.068,-0.547
-0.913,-0.063,-0.597
-0.909,-0.106,-0.712
-0.852,-0.092,-0.754
-0.844,-0.127,-0.786
-0.717,-0.270,-0.798
-0.609,-0.311,-0.654
-0.627,-0.290,-0.577
-0.726,-0.195,-0.397
-0.670,-0.238,-0.614
-0.627,-0.236,-0.752
-0.756,-0.251,-0.802
-0.707,-0.073,-0.707
-0.682,-0.061,-0.509
-0.686,-0.203,-0.306
-0.618,-0.119,-0.510
-0.655,-0.128,-0.549
-0.638,-0.190,-0.580
-0.594,-0.245,-0.589
-0.579,-0.293,-0.607
-0.567,-0.281,-0.587
-0.475,-0.331,-0.706
-0.447,-0.397,-0.686
-0.414,-0.385,-0.673
-0.356,-0.439,-0.710
-0.357,-0.452,-0.700
-0.324,-0.268,-0.639
-0.310,-0.406,-0.705
-0.302,-0.393,-0.702
-0.281,-0.315,-0.678
-0.283,-0.329,-0.691
-0.289,-0.331,-0.657
-0.277,-0.291,-0.671
-0.242,-0.437,-0.708
-0.225,-0.459,-0.736
-0.182,-0.497,-0.779
-0.192,-0.445,-0.782
-0.199,-0.427,-0.770
-0.211,-0.437,-0.789
-0.264,-0.392,-0.731
-0.278,-0.368,-0.723
-0.305,-0.375,-0.719
-0.312,-0.380,-0.707
-0.322,-0.380,-0.712
-0.286,-0.462,-0.752
-0.317,-0.523,-0.859
-0.341,-0.577,-0.996
-0.378,-0.678,-1.103
-0.398,-0.683,-1.077
-0.376,-0.656,-1.038
-0.325,-0.436,-0.863
-0.373,-0.337,-0.628
-0.401,-0.329,-0.625
-0.438,-0.438,-0.747
-0.479,-0.715,-0.780
-0.563,-0.759,-0.780
-0.625,-0.585,-0.869
-0.667,-0.345,-0.771
-0.701,-0.449,-0.626
-0.796,-0.529,-0.692
-0.838,-0.599,-0.672
-0.795,-0.664,-0.758
-0.650,-0.621,-0.772
-0.581,-0.539,-0.630
-0.587,-0.513,-0.584
-0.630,-0.506,-0.530
-0.634,-0.498,-0.533
-0.649,-0.479,-0.522
-0.690,-0.468,-0.521
-0.705,-0.432,-0.547
-0.676,-0.391,-0.572
-0.656,-0.348,-0.535
-0.717,-0.373,-0.595
-0.735,-0.342,-0.601
-0.707,-0.270,-0.613
-0.719,-0.270,-0.578
-0.720,-0.292,-0.574
-0.678,-0.335,-0.573
-0.676,-0.360,-0.510
-0.687,-0.363,-0.511
-0.682,-0.365,-0.581
-0.735,-0.297,-0.598
-0.741,-0.289,-0.575
-0.768,-0.229,-0.563
-0.802,-0.216,-0.554
-0.803,-0.256,-0.582
-0.769,-0.264,-0.549
-0.741,-0.262,-0.415
-0.771,-0.210,-0.463
-0.822,-0.297,-0.435
-0.825,-0.339,-0.467
-0.809,-0.291,-0.480
-0.776,-0.234,-0.607
-0.784,-0.277,-0.572
-0.794,-0.212,-0.496
-0.814,-0.263,-0.495
-0.804,-0.284,-0.541
-0.806,-0.273,-0.521
-0.793,-0.313,-0.473
-0.813,-0.307,-0.465
-0.833,-0.321,-0.470
-0.833,-0.340,-0.475
-0.824,-0.326,-0.452
-0.837,-0.341,-0.451
-0.850,-0.357,-0.436
-0.829,-0.366,-0.382
-0.817,-0.363,-0.382
-0.814,-0.393,-0.424
-0.858,-0.353,-0.475
-0.874,-0.334,-0.478
-0.849,-0.289,-0.503
-0.827,-0.327,-0.514
-0.846,-0.353,-0.528
-0.929,-0.340,-0.675
-0.921,-0.353,-0.705
-0.961,-0.349,-0.683
-1.142,-0.328,-0.629
-1.223,-0.268,-0.623
-1.230,-0.225,-0.640
-1.209,-0.206,-0.672
-1.143,-0.187,-0.703
-1.115,-0.156,-0.745
-1.063,-0.085,-0.776
-0.896,-0.003,-0.654
-0.935,-0.025,-0.663
-1.055,-0.197,-0.716
-0.925,-0.223,-0.833
-0.880,-0.403,-0.836
-0.660,-0.675,-0.701
-0.803,-0.451,-0.709
-0.903,-0.377,-0.667
-0.889,-0.340,-0.504
-0.947,-0.217,-0.752
-0.812,-0.272,-0.682
-0.804,-0.235,-0.550
-0.832,-0.407,-0.452
-0.825,-0.369,-0.388
-0.761,0.139,-0.498
-0.520,-0.818,-0.444
-0.569,-0.770,-0.493
-0.453,-0.528,-0.616
-0.457,-0.474,-0.566
-0.461,-0.376,-0.428
-0.302,-0.398,-0.560
-0.258,-0.385,-0.450
-0.248,-0.448,-0.574
-0.241,-0.575,-0.455
-0.187,-0.471,-0.543
-0.112,-0.465,-0.565
-0.031,-0.439,-0.573
-0.116,-0.064,-0.612
-0.163,-0.064,-0.578
-0.149,-0.112,-0.414
-0.103,-0.274,-0.403
-0.040,-0.373,-0.458
0.015,-0.402,-0.690
-0.028,-0.491,-0.742
-0.015,-0.542,-0.688
0.000,-0.606,-0.560
-0.022,-0.539,-0.562
-0.042,-0.426,-0.559
-0.057,-0.255,-0.568
-0.124,-0.272,-0.475
-0.122,-0.355,-0.448
-0.258,-0.654,-0.554
-0.522,-0.872,-0.726
-0.641,-0.933,-0.759
-0.417,-0.943,-0.610
-0.233,-0.792,-0.744
-0.343,-0.628,-1.001
-0.746,-0.603,-0.405
-0.544,-0.996,-0.593
-0.445,-1.115,-0.793
-0.604,-0.673,-0.922
-0.652,-0.776,-0.498
-0.591,-0.898,-0.355
-0.475,-0.911,-0.367
-0.466,-0.987,-0.512
-0.442,-0.990,-0.495
-0.439,-0.782,-0.595
-0.487,-0.688,-0.351
-0.574,-0.727,-0.542
-0.626,-0.631,-0.579
-0.656,-0.547,-0.569
-0.630,-0.570,-0.635
-0.631,-0.543,-0.649
-0.732,-0.456,-0.585
-0.708,-0.452,-0.610
-0.620,-0.450,-0.579
-0.538,-0.648,-0.555
-0.469,-0.796,-0.653
-0.480,-0.752,-0.691
-0.651,-0.609,-0.720
-0.656,-0.622,-0.785
-0.616,-0.584,-0.964
-0.708,-0.252,-0.569
-0.859,-0.188,-0.491
-0.918,-0.187,-0.425
-0.889,-0.361,-0.390
-0.855,-0.484,-0.556
-0.841,-0.558,-0.644
-0.668,-0.486,-0.596
-0.697,-0.395,-0.501
-0.721,-0.402,-0.471
-0.764,-0.454,-0.448
-0.811,-0.401,-0.496
-0.788,-0.405,-0.513
-0.743,-0.423,-0.452
-0.768,-0.418,-0.521
-0.727,-0.427,-0.536
-0.656,-0.413,-0.583
-0.697,-0.425,-0.506
-0.694,-0.455,-0.495
-0.772,-0.434,-0.579
-0.732,-0.403,-0.605
-0.746,-0.397,-0.581
-0.745,-0.361,-0.589
-0.738,-0.350,-0.593
-0.727,-0.401,-0.601
-0.676,-0.465,-0.616
-0.682,-0.421,-0.510
-0.694,-0.362,-0.636
-0.712,-0.306,-0.634
-0.734,-0.301,-0.547
-0.774,-0.276,-0.501
-0.814,-0.268,-0.492
-0.781,-0.190,-0.489
-0.813,-0.186,-0.488
-0.863,-0.189,-0.433
-0.843,-0.403,-0.537
-0.756,-0.435,-0.577
-0.615,-0.372,-0.635
-0.691,-0.391,-0.684
-0.698,-0.307,-0.511
-0.845,-0.362,-0.564
-0.784,-0.373,-0.520
-0.734,-0.395,-0.509
-0.720,-0.388,-0.541
-0.737,-0.376,-0.621
-0.729,-0.376,-0.644
-0.734,-0.338,-0.593
-0.745,-0.311,-0.567
-0.775,-0.290,-0.531
-0.783,-0.250,-0.525
-0.806,-0.284,-0.579
-0.767,-0.300,-0.591
-0.680,-0.313,-0.614
-0.636,-0.323,-0.594
-0.651,-0.377,-0.617
-0.677,-0.381,-0.650
-0.694,-0.280,-0.630
-0.740,-0.241,-0.574
-0.816,-0.265,-0.550
-0.850,-0.274,-0.505
-0.848,-0.293,-0.527
-0.783,-0.304,-0.528
-0.651,-0.290,-0.543
-0.676,-0.309,-0.557
-0.690,-0.423,-0.487
-0.704,-0.284,-0.483
-0.868,-0.181,-0.530
-1.026,-0.223,-0.464
-1.346,-0.110,-0.192
-1.415,-0.070,-0.183
-0.951,-0.055,-0.407
-0.867,-0.041,-0.380
-0.861,-0.074,-0.321
-0.884,-0.152,-0.380
-0.819,-0.194,-0.425
-0.817,-0.221,-0.484
-0.812,-0.168,-0.619
-0.813,-0.128,-0.553
-0.848,-0.100,-0.537
-0.861,-0.130,-0.542
-0.864,-0.159,-0.547
-0.853,-0.174,-0.535
-0.847,-0.205,-0.484
-0.890,-0.193,-0.425
-0.861,-0.214,-0.436
-0.832,-0.172,-0.456
-0.866,-0.162,-0.449
-0.901,-0.123,-0.450
-0.930,-0.167,-0.376
-0.924,-0.219,-0.381
-0.917,-0.212,-0.357
-0.899,-0.231,-0.340
-0.907,-0.245,-0.419
-0.878,-0.261,-0.432
-0.864,-0.211,-0.448
-0.839,-0.254,-0.455
-0.845,-0.262,-0.457
-0.861,-0.233,-0.448
-0.886,-0.214,-0.414
-0.899,-0.219,-0.409
-0.883,-0.248,-0.435
-0.837,-0.264,-0.445
-0.837,-0.244,-0.457
-0.855,-0.237,-0.431
-0.865,-0.208,-0.439
-0.895,-0.184,-0.434
-0.901,-0.149,-0.402
-0.906,-0.171,-0.405
-0.904,-0.188,-0.399
-0.866,-0.205,-0.418
-0.847,-0.192,-0.447
-0.840,-0.199,-0.436
-0.864,-0.163,-0.420
-0.905,-0.186,-0.394
-0.906,-0.178,-0.380
-0.941,-0.153,-0.342
-1.005,-0.174,-0.285
-1.017,-0.159,-0.303
-1.009,-0.163,-0.266
-0.980,-0.163,-0.237
-0.976,-0.170,-0.280
-0.937,-0.156,-0.244
-0.918,-0.184,-0.318
-0.918,-0.185,-0.339
-0.911,-0.186,-0.357
-0.915,-0.188,-0.354
-0.922,-0.188,-0.352
-0.931,-0.184,-0.345
-0.930,-0.176,-0.332
-0.925,-0.173,-0.330
-0.924,-0.170,-0.333
-0.929,-0.176,-0.324
-0.931,-0.186,-0.308
-0.938,-0.183,-0.297
-0.953,-0.190,-0.286
-0.948,-0.187,-0.287
-0.953,-0.179,-0.284
-0.961,-0.185,-0.277
-0.962,-0.182,-0.270
-0.975,-0.173,-0.253
-0.971,-0.181,-0.287
-0.955,-0.189,-0.289
-0.929,-0.190,-0.314
-0.922,-0.191,-0.313
-0.928,-0.177,-0.335
-0.918,-0.192,-0.347
-0.918,-0.187,-0.352
-0.913,-0.197,-0.354
-0.911,-0.211,-0.355
-0.904,-0.205,-0.367
-0.902,-0.216,-0.328
-0.899,-0.210,-0.352
-0.901,-0.209,-0.351
-0.915,-0.207,-0.340
-0.924,-0.209,-0.325
-0.929,-0.202,-0.326
-0.938,-0.196,-0.312
-0.935,-0.195,-0.304
-0.936,-0.205,-0.298
-0.953,-0.195,-0.305
-0.948,-0.195,-0.298
-0.950,-0.196,-0.284
-0.943,-0.212,-0.290
-0.934,-0.201,-0.304
-0.940,-0.210,-0.304
-0.936,-0.205,-0.322
-0.940,-0.196,-0.307
-0.945,-0.203,-0.276
-0.937,-0.214,-0.315
-0.944,-0.207,-0.308
-0.947,-0.202,-0.279
-0.948,-0.201,-0.281
-0.954,-0.200,-0.282
-0.956,-0.189,-0.237
-0.942,-0.182,-0.247
-0.957,-0.178,-0.265
-0.947,-0.177,-0.246
-0.956,-0.186,-0.231
-0.951,-0.189,-0.230
-0.954,-0.176,-0.244
-0.950,-0.178,-0.195
-0.962,-0.189,-0.250
-0.958,-0.186,-0.254
-0.957,-0.183,-0.252
-0.958,-0.188,-0.250
-0.962,-0.186,-0.247
-0.957,-0.201,-0.239
-0.954,-0.190,-0.248
-0.954,-0.194,-0.244
-0.958,-0.188,-0.241
-0.958,-0.192,-0.238
-0.960,-0.192,-0.236
-0.957,-0.197,-0.244
-0.949,-0.195,-0.245
-0.953,-0.194,-0.250
-0.954,-0.197,-0.245
-0.955,-0.194,-0.252
-0.956,-0.194,-0.246
-0.959,-0.190,-0.245
-0.962,-0.188,-0.239
-0.959,-0.191,-0.239
-0.959,-0.189,-0.242
-0.954,-0.185,-0.243
-0.958,-0.186,-0.246
-0.958,-0.187,-0.244
-0.960,-0.183,-0.238
-0.958,-0.187,-0.243
-0.958,-0.181,-0.245
-0.960,-0.189,-0.240
-0.951,-0.194,-0.252
-0.954,-0.188,-0.252
-0.957,-0.186,-0.249
-0.958,-0.186,-0.245
-0.955,-0.186,-0.246
-0.954,-0.193,-0.249
-0.957,-0.187,-0.244
-0.958,-0.188,-0.239
-0.957,-0.186,-0.241
-0.960,-0.183,-0.243
-0.958,-0.185,-0.241
-0.955,-0.192,-0.242
-0.956,-0.189,-0.246
-0.958,-0.184,-0.250
-0.958,-0.187,-0.244
-0.958,-0.186,-0.246
-0.956,-0.195,-0.244
-0.955,-0.192,-0.247
-0.955,-0.190,-0.246
-0.956,-0.187,-0.246
-0.956,-0.190,-0.244
-0.959,-0.191,-0.248
-0.956,-0.187,-0.253
-0.955,-0.186,-0.256
-0.954,-0.187,-0.256
-0.954,-0.192,-0.254
-0.961,-0.188,-0.249
-0.958,-0.198,-0.241
