aX,aY,aZ
-0.872,-0.034,-0.345
-0.901,0.029,-0.357
-0.919,0.054,-0.366
-0.935,0.004,-0.354
-0.967,-0.060,-0.338
-1.015,-0.067,-0.301
-1.057,-0.056,-0.250
-1.073,-0.013,-0.230
-1.077,0.049,-0.285
-1.072,0.143,-0.437
-1.080,0.108,-0.608
-1.079,-0.123,-0.643
-1.029,-0.304,-0.555
-0.877,-0.330,-0.409
-0.736,-0.298,-0.321
-0.716,-0.228,-0.422
-0.763,-0.253,-0.630
-0.779,-0.254,-0.720
-0.793,-0.225,-0.796
-0.837,-0.013,-0.874
-0.865,-0.009,-0.822
-0.870,0.051,-0.668
-0.886,-0.013,-0.565
-0.896,-0.097,-0.463
-0.880,-0.198,-0.403
-0.870,-0.266,-0.373
-0.916,-0.267,-0.353
-0.956,-0.223,-0.331
-0.997,-0.157,-0.319
-0.998,-0.142,-0.325
-0.982,-0.148,-0.328
-0.964,-0.131,-0.331
-0.933,-0.146,-0.333
-0.918,-0.136,-0.338
-0.925,-0.118,-0.372
-0.872,-0.259,-0.442
-0.833,-0.266,-0.464
-0.830,-0.279,-0.500
-0.843,-0.282,-0.502
-0.856,-0.255,-0.488
-0.859,-0.244,-0.462
-0.885,-0.203,-0.441
-0.905,-0.181,-0.417
-0.910,-0.201,-0.408
-0.917,-0.221,-0.404
-0.906,-0.242,-0.406
-0.893,-0.278,-0.401
-0.886,-0.284,-0.402
-0.886,-0.279,-0.407
-0.885,-0.285,-0.428
-0.874,-0.315,-0.440
-0.864,-0.298,-0.448
-0.849,-0.289,-0.450
-0.839,-0.322,-0.437
-0.835,-0.345,-0.422
-0.840,-0.325,-0.410
-0.840,-0.344,-0.399
-0.860,-0.366,-0.413
-0.858,-0.361,-0.435
-0.839,-0.365,-0.449
-0.809,-0.379,-0.471
-0.795,-0.360,-0.484
-0.780,-0.353,-0.484
-0.788,-0.344,-0.502
-0.791,-0.340,-0.514
-0.818,-0.321,-0.556
-0.819,-0.271,-0.608
-0.815,-0.270,-0.594
-0.793,-0.199,-0.586
-0.801,-0.143,-0.518
-0.875,-0.062,-0.448
-1.035,-0.027,-0.365
-1.180,-0.206,-0.345
-1.257,-0.289,-0.265
-1.349,-0.179,-0.265
-1.437,-0.070,-0.342
-1.425,0.056,-0.385
-1.329,0.177,-0.440
-1.199,0.237,-0.500
-1.040,0.229,-0.549
-0.883,0.242,-0.586
-0.783,0.194,-0.600
-0.768,0.000,-0.607
-0.854,-0.253,-0.234
-1.027,0.166,-0.535
-0.831,0.245,-0.575
-0.734,0.147,-0.444
-0.794,0.221,-0.429
-0.823,0.084,-0.405
-0.808,-0.088,-0.353
-0.903,-0.082,-0.186
-0.968,-0.106,-0.020
-1.001,-0.082,0.162
-1.203,-0.132,0.307
-1.154,-0.240,0.201
-1.054,-0.239,-0.137
-1.027,-0.300,-0.498
-0.926,-0.041,-0.565
-0.691,-0.070,-0.870
-0.487,-0.043,-0.882
-0.534,0.054,-0.819
-0.664,-0.071,-0.747
-0.526,-0.035,-0.759
-0.721,0.040,-0.672
-0.841,0.021,-0.557
-0.712,0.001,-0.517
-0.650,0.037,-0.450
-0.711,0.023,-0.266
-0.836,-0.084,-0.179
-0.860,-0.260,-0.211
-1.072,-0.387,-0.243
-1.029,-0.334,-0.171
-1.072,-0.233,-0.264
-0.662,0.021,-0.385
-0.486,-0.003,-0.506
0.071,-0.110,-0.644
-0.082,-0.345,-0.203
-0.273,-0.403,-0.144
-1.992,1.108,-1.196
-1.331,0.325,-1.011
-1.111,0.050,-0.924
-0.797,-0.186,-0.935
-0.589,0.011,-0.684
-0.589,0.100,-0.652
-0.617,0.025,-0.650
-0.658,0.071,-0.743
-0.577,0.102,-0.852
-0.525,0.131,-0.896
-0.587,0.023,-0.939
-0.640,-0.024,-0.974
-0.672,0.066,-1.080
-0.852,0.061,-0.718
-0.974,0.187,-0.589
-0.752,0.090,-0.503
-0.745,-0.171,-0.359
-0.690,-0.185,-0.264
-0.710,-0.076,-0.389
-0.617,-0.051,-0.642
-0.556,-0.038,-0.724
-0.453,-0.011,-0.748
-0.509,0.038,-0.685
-0.530,0.061,-0.623
-0.577,0.112,-0.575
-0.630,0.231,-0.580
-0.628,0.279,-0.574
-0.588,0.210,-0.561
-0.651,0.237,-0.639
-0.671,0.219,-0.650
-0.606,0.127,-0.692
-0.569,0.125,-0.732
-0.569,0.156,-0.748
-0.476,0.007,-0.797
-0.396,0.021,-0.735
-0.398,-0.027,-0.705
-0.405,-0.007,-0.594
-0.476,0.165,-0.482
-0.479,0.115,-0.487
-0.478,0.238,-0.462
-0.448,0.100,-0.561
-0.425,0.138,-0.572
-0.437,0.190,-0.586
-0.888,0.084,-0.970
-1.077,-0.247,-1.346
-1.154,0.057,-0.822
-1.007,-0.344,-0.992
-0.917,-0.293,-1.249
-1.002,0.314,-1.852
-1.090,0.115,-0.764
-1.232,0.073,-0.334
-1.188,-0.671,-0.325
-0.967,-0.353,-0.297
-0.933,-0.259,-0.371
-0.949,-0.073,-0.595
-1.029,-0.341,-0.658
-0.873,-0.202,-0.398
-0.746,-0.278,-0.337
-0.743,-0.145,-0.360
-0.678,-0.173,-0.425
-0.829,-0.417,-0.612
-0.857,-0.338,-0.472
-0.828,-0.383,-0.435
-0.676,-0.325,-0.474
-0.620,-0.374,-0.666
-0.590,-0.391,-0.736
-0.460,-0.337,-0.856
-0.618,-0.165,-0.739
-0.635,-0.177,-0.711
-0.600,-0.147,-0.734
-0.613,-0.141,-0.693
-0.602,-0.132,-0.623
-0.522,0.000,-0.658
-0.647,-0.110,-0.621
-0.694,-0.156,-0.622
-0.864,-0.168,-0.741
-0.858,-0.438,-0.446
-0.783,-0.343,-0.230
-0.595,-0.311,0.085
-0.449,-0.391,-0.056
-0.355,-0.409,-0.268
-0.569,-0.126,-0.656
-0.929,0.022,-0.514
-0.837,-0.070,-0.439
-0.922,-0.305,-0.567
-0.973,-0.352,-0.731
-1.107,-0.295,-0.985
-1.131,-0.140,-1.136
-1.143,0.107,-1.101
-1.129,0.169,-0.975
-1.016,0.020,-0.782
-0.859,-0.135,-0.935
-0.784,-0.096,-0.902
-0.705,0.026,-0.660
-0.787,0.065,-0.669
-0.796,0.103,-0.649
-0.767,0.027,-0.643
-0.712,-0.077,-0.497
-0.693,-0.085,-0.410
-0.642,-0.050,-0.359
-0.601,-0.030,-0.426
-0.557,-0.055,-0.495
-0.571,-0.128,-0.662
-0.590,-0.115,-0.697
-0.596,-0.135,-0.703
-0.571,-0.164,-0.681
-0.601,-0.149,-0.636
-0.590,-0.127,-0.607
-0.579,-0.105,-0.586
-0.590,-0.004,-0.651
-0.629,-0.016,-0.700
-0.556,-0.149,-0.793
-0.475,-0.175,-0.781
-0.455,-0.137,-0.764
-0.557,-0.041,-0.738
-0.652,0.127,-0.609
-0.723,0.165,-0.575
-0.885,0.170,-0.416
-0.807,-0.214,-0.428
-0.702,-0.223,-0.490
-0.587,-0.165,-0.592
-0.679,-0.040,-0.606
-0.728,0.062,-0.564
-0.763,0.108,-0.592
-0.662,0.003,-0.620
-0.709,0.013,-0.631
-1.123,-0.053,-0.691
-1.338,-0.238,-0.838
-1.280,-0.259,-0.885
-0.870,-0.388,-0.630
-0.951,-0.407,-0.274
-0.900,-0.649,-0.199
-0.987,-0.689,-0.499
-1.613,-0.658,-1.350
-1.463,-0.342,-1.308
-0.814,-0.150,-0.529
-0.675,-0.401,-0.190
-0.572,-0.474,0.006
-0.653,-0.454,-0.004
-0.877,-0.392,-0.468
-0.878,-0.405,-0.479
-0.829,-0.406,-0.546
-0.814,-0.420,-0.500
-0.809,-0.398,-0.500
-0.716,-0.407,-0.638
-0.672,-0.401,-0.700
-0.659,-0.343,-0.688
-0.692,-0.293,-0.617
-0.760,-0.293,-0.589
-0.775,-0.304,-0.597
-0.777,-0.270,-0.616
-0.778,-0.272,-0.553
-0.754,-0.298,-0.517
-0.655,-0.265,-0.560
-0.653,-0.373,-0.477
-0.660,-0.433,-0.427
-0.663,-0.384,-0.451
-0.702,-0.319,-0.571
-0.717,-0.407,-0.545
-0.717,-0.310,-0.718
-0.977,-0.098,-0.579
-0.983,-0.099,-0.449
-0.966,-0.209,-0.249
-0.843,-0.363,-0.266
-0.760,-0.383,-0.347
-0.599,-0.434,-0.477
-0.435,-0.494,-0.615
-0.407,-0.472,-0.684
-0.550,-0.360,-0.690
-0.731,-0.310,-0.688
-0.800,-0.210,-0.661
-0.821,-0.136,-0.422
-0.521,-0.263,-0.383
-0.471,-0.277,-0.447
-0.601,-0.183,-0.517
-0.682,-0.051,-0.727
-0.680,-0.128,-0.811
-0.858,-0.297,-0.822
-0.920,-0.277,-1.021
-0.911,-0.197,-1.057
-0.816,-0.119,-1.043
-0.795,-0.054,-0.875
-0.902,-0.094,-0.750
-1.033,-0.203,-0.683
-0.962,-0.362,-0.888
-0.797,-0.253,-0.895
-0.833,0.017,-0.610
-0.865,0.017,-0.507
-0.903,-0.051,-0.519
-0.775,-0.238,-0.693
-0.678,-0.122,-0.850
-0.668,-0.046,-0.787
-0.696,0.025,-0.591
-0.632,-0.054,-0.420
-0.615,-0.064,-0.410
-0.612,-0.058,-0.382
-0.625,0.011,-0.274
-0.628,-0.004,-0.212
-0.625,-0.107,-0.427
-0.540,-0.195,-0.430
-0.479,-0.209,-0.529
-0.477,-0.217,-0.963
-0.610,-0.361,-1.416
-0.660,-0.281,-1.461
-0.362,-0.138,-1.035
-0.532,0.023,-0.682
-0.618,-0.015,-0.565
-0.819,0.012,-0.400
-0.875,-0.028,-0.271
-0.809,-0.024,-0.304
-0.782,0.000,-0.456
-0.742,-0.085,-0.601
-0.754,-0.010,-0.572
-0.823,-0.016,-0.521
-0.580,-0.227,-0.630
-0.530,-0.177,-0.632
-0.652,0.001,-0.476
-0.940,-0.159,-0.741
-1.039,-0.227,-0.792
-1.166,-0.526,-1.100
-0.731,-0.320,-0.789
-0.937,-0.015,-0.631
-1.070,-0.332,-0.574
-0.976,-0.378,-0.495
-0.903,-0.406,-0.460
-0.932,-0.467,-0.473
-1.110,-0.608,-0.691
-1.195,-0.546,-0.807
-1.050,-0.354,-0.813
-0.770,-0.344,-0.410
-0.793,-0.278,-0.271
-0.717,-0.423,-0.151
-0.846,-0.509,-0.273
-0.901,-0.445,-0.442
-0.841,-0.384,-0.585
-0.727,-0.402,-0.570
-0.702,-0.389,-0.535
-0.745,-0.331,-0.490
-0.717,-0.191,-0.554
-0.701,-0.143,-0.590
-0.733,-0.161,-0.613
-0.741,-0.196,-0.648
-0.766,-0.231,-0.608
-0.731,-0.281,-0.536
-0.589,-0.295,-0.656
-0.543,-0.250,-0.749
-0.585,-0.163,-0.722
-0.919,-0.254,-0.341
-0.926,-0.267,-0.202
-0.724,-0.427,-0.183
-0.575,-0.477,-0.218
-0.427,-0.546,-0.388
-0.331,-0.639,-0.786
-0.782,-0.001,-0.684
-0.917,0.114,-0.571
-0.674,-0.007,-0.580
-0.572,-0.123,-0.512
-0.581,-0.169,-0.503
-0.983,0.011,-0.813
-1.106,-0.062,-1.180
-1.181,-0.091,-1.124
-0.898,-0.116,-0.876
-0.776,-0.098,-0.748
-0.865,-0.090,-0.758
-0.883,-0.207,-0.737
-0.846,-0.136,-0.875
-0.903,-0.179,-1.024
-0.890,-0.087,-0.766
-0.858,0.075,-0.591
-0.881,0.069,-0.586
-0.808,0.071,-0.507
-0.700,-0.012,-0.593
-0.693,-0.017,-0.540
-0.678,0.038,-0.420
-0.674,0.097,-0.454
-0.692,0.005,-0.514
-0.649,-0.180,-0.590
-0.655,-0.126,-0.546
-0.652,-0.098,-0.489
-0.638,-0.030,-0.490
-0.668,-0.084,-0.628
-0.640,-0.110,-0.631
-0.566,-0.135,-0.593
-0.574,-0.184,-0.665
-0.615,-0.201,-0.767
-0.645,-0.132,-0.922
-0.620,-0.015,-0.746
-0.593,0.000,-0.713
-0.596,0.008,-0.678
-0.601,0.034,-0.606
-0.679,0.018,-0.545
-0.656,-0.103,-0.428
-0.671,-0.097,-0.424
-0.662,-0.113,-0.484
-0.684,-0.186,-0.579
-0.809,-0.021,-0.612
-0.861,-0.077,-0.689
-0.706,-0.179,-0.692
-0.606,0.034,-0.591
-0.625,0.218,-0.534
-0.694,0.089,-0.551
-0.880,-0.014,-0.607
-1.106,-0.040,-0.639
-1.258,-0.391,-0.922
-0.686,-0.638,-0.738
-0.757,-0.447,-0.609
-0.789,-0.418,-0.539
-0.943,-0.504,-0.720
-1.096,-0.568,-0.821
-1.388,-0.526,-0.946
-1.556,-0.388,-1.133
-1.192,-0.354,-0.702
-0.954,-0.359,-0.220
-0.555,-0.518,-0.081
-0.558,-0.591,-0.167
-0.808,-0.624,-0.312
-1.014,-0.375,-0.259
-0.936,-0.417,-0.309
-0.845,-0.446,-0.353
-0.712,-0.452,-0.384
-0.672,-0.447,-0.417
-0.753,-0.378,-0.490
-0.874,-0.346,-0.503
-0.831,-0.354,-0.523
-0.785,-0.255,-0.630
-0.809,-0.278,-0.710
-0.762,-0.274,-0.680
-0.689,-0.248,-0.679
-0.648,-0.324,-0.646
-0.590,-0.323,-0.584
-0.582,-0.319,-0.536
-0.708,-0.361,-0.456
-0.855,-0.359,-0.501
-0.876,-0.370,-0.505
-0.875,-0.343,-0.428
-0.859,-0.354,-0.396
-0.832,-0.377,-0.356
-0.741,-0.425,-0.437
-0.637,-0.380,-0.588
-0.596,-0.354,-0.674
-0.697,-0.296,-0.636
-0.772,-0.258,-0.506
-0.789,-0.269,-0.535
-0.775,-0.313,-0.535
-0.735,-0.392,-0.592
-0.697,-0.361,-0.623
-0.726,-0.358,-0.558
-0.703,-0.316,-0.432
-0.638,-0.284,-0.395
-0.527,-0.307,-0.538
-0.514,-0.320,-0.651
-0.582,-0.245,-0.707
-0.697,-0.109,-0.644
-0.716,-0.033,-0.524
-0.719,-0.091,-0.423
-0.817,-0.084,-0.455
-0.982,-0.093,-0.943
-1.087,-0.100,-1.226
-1.092,-0.112,-1.150
-0.920,-0.086,-0.671
-0.868,-0.061,-0.551
-0.934,-0.083,-0.497
-0.926,-0.148,-0.580
-0.929,-0.142,-0.700
-0.891,-0.163,-0.965
-0.911,0.014,-0.684
-0.884,0.070,-0.576
-0.848,0.101,-0.492
-0.757,0.068,-0.497
-0.701,0.088,-0.546
-0.649,0.128,-0.580
-0.593,0.080,-0.533
-0.701,-0.058,-0.537
-0.777,-0.053,-0.514
-0.785,-0.025,-0.490
-0.756,-0.065,-0.574
-0.729,-0.064,-0.590
-0.697,-0.089,-0.601
-0.668,-0.088,-0.601
-0.662,-0.092,-0.630
-0.572,-0.101,-0.753
-0.744,-0.121,-0.889
-0.644,-0.165,-0.966
-0.624,-0.083,-0.833
-0.601,-0.064,-0.775
-0.598,-0.086,-0.749
-0.635,-0.112,-0.739
-0.647,-0.062,-0.644
-0.653,0.018,-0.619
-0.682,-0.089,-0.625
-0.778,0.053,-0.508
-0.741,0.042,-0.477
-0.732,0.052,-0.448
-0.741,0.074,-0.433
-0.740,0.050,-0.444
-0.703,-0.082,-0.483
-0.573,-0.245,-0.496
-0.557,-0.238,-0.487
-0.607,-0.155,-0.501
-0.702,-0.090,-0.460
-0.741,-0.090,-0.448
-0.723,-0.014,-0.542
-0.733,0.113,-0.570
-0.730,0.146,-0.542
-0.848,0.070,-0.516
-1.126,-0.127,-0.708
-1.194,-0.487,-0.911
-1.009,-0.725,-1.011
-0.946,-0.528,-0.504
-0.994,-0.550,-0.791
-1.298,-0.614,-0.922
-1.610,-0.524,-1.269
-0.768,-0.034,-0.566
-0.733,-0.118,-0.350
-0.631,-0.431,-0.014
-0.761,-0.533,-0.387
-0.801,-0.507,-0.569
-0.843,-0.428,-0.427
-0.851,-0.488,-0.371
-0.830,-0.460,-0.374
-0.806,-0.377,-0.437
-0.828,-0.285,-0.535
-0.830,-0.278,-0.565
-0.828,-0.323,-0.500
-0.799,-0.357,-0.511
-0.756,-0.373,-0.516
-0.728,-0.361,-0.583
-0.728,-0.388,-0.586
-0.734,-0.420,-0.540
-0.776,-0.405,-0.475
-0.784,-0.392,-0.480
-0.783,-0.377,-0.493
-0.801,-0.366,-0.502
-0.791,-0.315,-0.568
-0.752,-0.348,-0.515
-0.744,-0.362,-0.508
-0.729,-0.368,-0.519
-0.716,-0.367,-0.491
-0.707,-0.370,-0.484
-0.726,-0.352,-0.459
-0.769,-0.392,-0.456
-0.764,-0.373,-0.487
-0.731,-0.327,-0.551
-0.696,-0.322,-0.549
-0.673,-0.302,-0.548
-0.731,-0.185,-0.575
-0.785,-0.286,-0.430
-0.794,-0.429,-0.430
-0.704,-0.389,-0.480
-0.639,-0.307,-0.540
-0.747,-0.291,-0.555
-0.756,-0.328,-0.591
-0.623,-0.260,-0.698
-0.700,-0.242,-0.668
-0.741,-0.278,-0.475
-0.654,-0.273,-0.279
-0.609,-0.347,-0.278
-0.401,-0.392,-0.569
-0.464,-0.207,-0.835
-0.597,-0.061,-0.923
-0.802,0.097,-0.724
-0.946,-0.156,-0.439
-1.122,0.036,-0.853
-1.136,-0.140,-1.057
-1.126,-0.184,-0.891
-1.092,-0.189,-0.891
-0.904,-0.160,-0.654
-0.851,-0.136,-0.421
-0.870,-0.178,-0.410
-0.920,-0.157,-0.502
-0.924,-0.046,-0.676
-0.873,-0.003,-0.788
-0.794,0.055,-0.875
-0.811,0.111,-0.748
-0.791,0.100,-0.688
-0.756,0.070,-0.645
-0.715,0.056,-0.708
-0.717,0.107,-0.704
-0.700,0.116,-0.614
-0.694,0.035,-0.671
-0.694,-0.021,-0.741
-0.657,-0.166,-0.799
-0.686,-0.064,-0.779
-0.714,-0.060,-0.751
-0.681,-0.027,-0.739
-0.649,0.079,-0.641
-0.654,0.105,-0.581
-0.663,0.070,-0.527
-0.639,-0.031,-0.612
-0.641,-0.045,-0.637
-0.641,-0.035,-0.631
-0.650,-0.039,-0.656
-0.640,-0.056,-0.668
-0.613,-0.070,-0.692
-0.609,-0.074,-0.716
-0.616,-0.066,-0.710
-0.650,-0.078,-0.664
-0.677,-0.038,-0.704
-0.681,0.123,-0.742
-0.696,-0.112,-0.814
-0.607,-0.142,-0.813
-0.623,-0.142,-0.802
-0.656,-0.155,-0.732
-0.668,-0.144,-0.673
-0.660,-0.117,-0.645
-0.623,-0.091,-0.599
-0.625,-0.105,-0.587
-0.623,-0.146,-0.594
-0.617,-0.114,-0.675
-0.641,-0.079,-0.771
-0.665,-0.005,-0.787
-0.647,-0.048,-0.721
-0.658,-0.040,-0.660
-0.641,-0.018,-0.624
-0.716,-0.020,-0.639
-0.636,-0.001,-0.577
-0.654,0.011,-0.563
-0.677,-0.034,-0.568
-0.670,-0.030,-0.549
-0.640,-0.117,-0.560
-0.528,-0.184,-0.523
-0.571,-0.203,-0.471
-0.605,-0.213,-0.475
-0.759,-0.160,-0.479
-0.791,-0.128,-0.509
-0.734,-0.092,-0.549
-0.662,-0.007,-0.639
-0.740,0.167,-0.552
-0.865,0.222,-0.524
-1.243,-0.173,-0.792
-0.977,-0.573,-0.908
-0.887,-0.521,-0.584
-0.825,-0.522,-0.536
-0.674,-0.570,-0.420
-0.680,-0.568,-0.436
-0.989,-0.721,-0.815
-1.497,-0.510,-1.307
-1.466,-0.343,-1.264
-0.955,-0.099,-0.340
-0.901,-0.366,0.015
-0.800,-0.505,0.038
-0.637,-0.614,-0.183
-0.856,-0.520,-0.469
-0.876,-0.422,-0.456
-0.895,-0.355,-0.449
-0.860,-0.371,-0.447
-0.815,-0.331,-0.396
-0.827,-0.332,-0.402
-0.823,-0.276,-0.499
-0.813,-0.281,-0.527
-0.746,-0.314,-0.581
-0.692,-0.410,-0.607
-0.686,-0.387,-0.597
-0.717,-0.383,-0.578
-0.712,-0.406,-0.593
-0.698,-0.405,-0.608
-0.664,-0.316,-0.595
-0.633,-0.249,-0.547
-0.667,-0.255,-0.528
-0.691,-0.220,-0.513
-0.667,-0.174,-0.534
-0.631,-0.098,-0.579
-0.771,-0.130,-0.553
-0.824,-0.228,-0.322
-0.752,-0.286,-0.417
-0.562,-0.427,-0.811
-0.738,-0.426,-0.700
-0.844,-0.389,-0.506
-0.771,-0.322,-0.183
-0.438,-0.465,-0.294
-0.352,-0.565,-0.480
-0.346,-0.626,-0.831
-0.931,0.082,-0.655
-0.878,0.061,-0.568
-0.695,-0.141,-0.543
-0.794,-0.079,-0.547
-0.906,-0.323,-0.693
-1.239,-0.332,-1.016
-1.201,-0.245,-1.082
-1.137,-0.271,-0.955
-0.834,-0.078,-0.514
-0.807,-0.172,-0.469
-0.919,-0.165,-0.482
-1.006,-0.108,-0.598
-0.864,-0.013,-0.833
-0.830,0.013,-0.915
-0.787,0.082,-0.945
-0.776,0.044,-0.898
-0.786,-0.004,-0.874
-0.744,-0.026,-0.743
-0.699,-0.056,-0.589
-0.621,0.108,-0.503
-0.666,-0.027,-0.677
-0.667,-0.062,-0.578
-0.675,-0.056,-0.531
-0.696,-0.022,-0.455
-0.708,0.075,-0.472
-0.721,0.066,-0.517
-0.705,0.027,-0.535
-0.670,-0.023,-0.617
-0.649,-0.050,-0.642
-0.703,-0.072,-0.706
-0.650,-0.058,-0.741
-0.649,-0.031,-0.733
-0.643,-0.027,-0.693
-0.617,0.001,-0.745
-0.617,0.000,-0.695
-0.663,-0.021,-0.648
-0.623,-0.114,-0.640
-0.611,-0.065,-0.642
-0.584,-0.019,-0.659
-0.590,-0.021,-0.557
-0.626,-0.056,-0.534
-0.685,-0.018,-0.534
-0.724,0.023,-0.535
-0.661,0.003,-0.544
-0.512,-0.150,-0.568
-0.540,-0.189,-0.613
-0.641,-0.078,-0.545
-0.849,-0.023,-0.449
-0.801,0.112,-0.562
-1.001,0.049,-0.658
-1.244,-0.340,-0.851
-0.998,-0.552,-0.784
-0.871,-0.471,-0.654
-1.142,-0.522,-0.891
-1.881,-0.751,-1.371
-0.848,0.212,-0.809
-1.120,-0.534,-0.036
-1.093,-0.571,-0.112
-0.887,-0.629,-0.509
-0.726,-0.628,-0.663
-0.738,-0.397,-0.450
-0.911,-0.236,-0.447
-0.831,-0.234,-0.421
-0.736,-0.252,-0.466
-0.720,-0.270,-0.604
-0.688,-0.229,-0.700
-0.667,-0.234,-0.794
-0.668,-0.224,-0.737
-0.688,-0.227,-0.699
-0.723,-0.289,-0.660
-0.745,-0.298,-0.641
-0.746,-0.277,-0.636
-0.757,-0.216,-0.605
-0.765,-0.232,-0.561
-0.779,-0.248,-0.553
-0.763,-0.240,-0.545
-0.738,-0.257,-0.555
-0.683,-0.216,-0.555
-0.659,-0.228,-0.555
-0.567,-0.129,-0.626
-0.528,-0.108,-0.685
-0.525,-0.143,-0.633
-0.563,-0.268,-0.513
-0.606,-0.288,-0.418
-0.684,-0.286,-0.408
-0.659,-0.287,-0.647
-0.685,-0.235,-0.728
-0.860,-0.261,-0.569
-0.863,-0.214,-0.342
-0.773,-0.242,-0.260
-0.505,-0.288,-0.422
-0.477,-0.258,-0.892
-0.645,-0.184,-0.936
-0.763,-0.141,-0.650
-0.779,-0.133,-0.429
-0.886,-0.191,-0.460
-1.130,-0.286,-0.818
-1.003,-0.120,-1.009
-0.838,-0.026,-0.997
-1.117,0.024,-0.933
-1.254,-0.232,-1.110
-1.036,-0.234,-1.044
-0.698,0.022,-0.705
-0.713,0.088,-0.599
-0.736,0.059,-0.694
-0.650,0.025,-0.433
-0.665,0.000,-0.400
-0.681,-0.046,-0.503
-0.700,-0.058,-0.545
-0.694,-0.067,-0.550
-0.695,-0.099,-0.487
-0.708,-0.084,-0.410
-0.709,-0.064,-0.396
-0.695,-0.081,-0.350
-0.641,-0.108,-0.393
-0.599,-0.134,-0.465
-0.561,-0.198,-0.615
-0.480,-0.157,-0.746
-0.525,-0.173,-0.778
-0.494,-0.043,-0.889
-0.507,-0.001,-0.784
-0.535,0.017,-0.712
-0.653,0.016,-0.603
-0.646,0.001,-0.565
-0.637,-0.020,-0.540
-0.661,-0.035,-0.526
-0.634,0.050,-0.566
-0.659,-0.002,-0.529
-0.636,-0.013,-0.547
-0.607,-0.067,-0.526
-0.559,-0.090,-0.624
-0.652,-0.075,-0.568
-1.382,-0.408,-1.046
-1.061,-0.806,-1.244
-0.941,-0.384,-0.978
-0.892,-0.322,-0.638
-1.170,-0.266,-1.012
-0.927,-0.150,-0.802
-0.901,-0.368,-0.209
-0.718,-0.654,-0.068
-0.674,-0.629,-0.015
-0.816,-0.804,-0.273
-0.696,-0.687,-0.393
-0.662,-0.276,-0.492
-0.980,-0.318,-0.271
-0.871,-0.332,-0.443
-0.745,-0.425,-0.585
-0.592,-0.429,-0.613
-0.626,-0.399,-0.677
-0.683,-0.256,-0.693
-0.771,-0.322,-0.633
-0.806,-0.373,-0.535
-0.799,-0.394,-0.511
-0.776,-0.466,-0.501
-0.749,-0.428,-0.426
-0.754,-0.409,-0.395
-0.780,-0.386,-0.411
-0.784,-0.439,-0.445
-0.609,-0.451,-0.564
-0.591,-0.446,-0.575
-0.644,-0.418,-0.609
-1.153,-0.638,-0.888
-1.301,-0.350,-0.879
-1.442,-0.090,-0.758
-1.272,-0.234,-0.636
-1.229,-0.129,-0.513
-1.129,-0.219,-0.365
-0.968,-0.448,-0.049
-1.016,-0.244,0.022
-0.993,-0.223,-0.069
-0.811,-0.201,-0.377
-0.777,-0.155,-0.427
-0.718,-0.160,-0.555
-0.694,-0.141,-0.526
-0.623,-0.163,-0.496
-0.626,-0.137,-0.396
-0.680,-0.162,-0.345
-0.659,-0.105,-0.443
-0.692,-0.074,-0.505
-0.743,0.010,-0.576
-0.795,0.018,-0.637
-0.815,0.052,-0.583
-0.801,0.045,-0.531
-0.805,0.024,-0.476
-0.763,0.025,-0.477
-0.696,0.009,-0.577
-0.691,-0.002,-0.615
-0.688,-0.033,-0.830
-0.584,-0.182,-0.922
-0.526,-0.198,-0.797
-0.604,-0.067,-0.731
-0.632,-0.133,-0.683
-0.678,-0.199,-0.697
-0.664,-0.037,-0.793
-0.799,0.125,-0.657
-0.850,0.200,-0.507
-0.801,0.079,-0.563
-0.774,0.099,-0.592
-0.753,0.081,-0.556
-0.687,0.016,-0.549
-0.621,-0.041,-0.602
-0.595,-0.062,-0.665
-0.519,-0.126,-0.704
-0.442,-0.055,-0.626
-0.447,-0.018,-0.601
-0.465,0.029,-0.545
-0.498,0.022,-0.543
-0.484,0.015,-0.585
-0.620,0.060,-0.656
-0.532,0.019,-0.629
-0.547,0.014,-0.605
-0.563,0.014,-0.591
-0.531,0.084,-0.638
-0.499,0.095,-0.643
-0.495,0.104,-0.649
-0.609,0.184,-0.728
-0.653,0.225,-0.706
-0.738,0.174,-0.680
-0.726,0.211,-0.688
-0.685,0.247,-0.708
-0.751,-0.234,-0.892
-0.981,-0.269,-1.000
-0.741,-0.495,-1.750
-2.101,-0.272,-2.146
-1.249,0.212,0.681
-0.937,-0.349,0.736
-0.867,-0.200,-0.086
-0.670,-0.424,-0.653
-0.942,-0.681,-1.375
-1.040,-0.314,-1.106
-1.095,-0.307,-0.458
-1.017,-0.422,-0.361
-0.931,-0.275,-0.246
-0.816,-0.329,-0.577
-0.659,-0.316,-0.726
-0.599,-0.246,-0.659
-0.697,-0.162,-0.660
-0.813,-0.102,-0.630
-0.840,-0.162,-0.551
-0.785,-0.237,-0.569
-0.763,-0.279,-0.588
-0.627,-0.300,-0.610
-0.636,-0.274,-0.602
-0.655,-0.260,-0.576
-0.807,-0.330,-0.553
-0.801,-0.332,-0.508
-0.795,-0.332,-0.479
-0.761,-0.332,-0.387
-0.772,-0.345,-0.386
-0.784,-0.374,-0.384
-0.767,-0.346,-0.572
-0.712,-0.341,-0.605
-0.692,-0.330,-0.624
-0.637,-0.244,-0.641
-0.591,-0.075,-0.695
-0.618,0.004,-0.708
-0.773,-0.081,-0.595
-0.659,-0.216,-0.613
-0.643,-0.265,-0.607
-0.620,-0.341,-0.610
-0.676,-0.336,-0.451
-0.603,-0.299,-0.264
-0.479,-0.226,-0.494
-0.488,-0.240,-0.566
-0.597,-0.207,-0.664
-0.652,-0.154,-0.566
-0.610,-0.197,-0.474
-0.608,0.005,-0.411
-0.713,-0.162,-0.508
-0.921,-0.238,-0.638
-1.320,-0.391,-1.421
-1.231,-0.387,-1.837
-1.142,-0.305,-1.430
-0.955,-0.070,-0.551
-0.885,-0.079,-0.406
-0.849,-0.070,-0.404
-0.854,-0.113,-0.701
-0.747,-0.141,-0.980
-0.718,-0.108,-1.050
-0.706,-0.005,-0.866
-0.787,-0.008,-0.672
-0.780,-0.025,-0.610
-0.751,-0.011,-0.546
-0.735,0.023,-0.515
-0.729,0.000,-0.518
-0.739,-0.031,-0.601
-0.753,-0.090,-0.684
-0.716,-0.073,-0.499
-0.718,-0.061,-0.446
-0.711,0.011,-0.400
-0.729,-0.006,-0.482
-0.701,0.028,-0.472
-0.668,-0.033,-0.526
-0.644,-0.088,-0.600
-0.643,-0.106,-0.633
-0.603,-0.125,-0.650
-0.633,-0.119,-0.804
-0.625,-0.046,-0.827
-0.552,-0.067,-0.807
-0.491,-0.062,-0.822
-0.450,-0.085,-0.738
-0.469,-0.069,-0.565
-0.515,-0.060,-0.482
-0.546,-0.013,-0.462
-0.573,-0.035,-0.465
-0.664,-0.004,-0.448
-0.676,-0.020,-0.478
-0.643,0.014,-0.540
-0.717,0.052,-0.520
-0.732,-0.012,-0.508
-0.704,-0.098,-0.509
-0.735,-0.008,-0.491
-1.029,0.152,-0.493
-1.449,-0.073,-0.921
-0.931,-0.592,-0.949
-0.772,-0.408,-0.914
-0.645,0.000,-0.630
-0.883,-0.326,-0.164
-0.979,-0.324,-0.230
-1.535,-0.265,-1.653
-0.775,-0.149,-0.711
-1.095,-0.269,-0.435
-1.237,-0.558,-0.194
-0.814,-0.798,-0.684
-0.710,-0.783,-0.729
-0.784,-0.503,-0.549
-0.946,-0.292,-0.488
-0.891,-0.274,-0.458
-0.828,-0.313,-0.361
-0.874,-0.335,-0.299
-0.880,-0.316,-0.358
-0.781,-0.310,-0.534
-0.628,-0.315,-0.657
-0.569,-0.316,-0.715
-0.545,-0.274,-0.800
-0.653,-0.194,-0.767
-0.670,-0.179,-0.756
-0.700,-0.228,-0.644
-0.666,-0.266,-0.609
-0.676,-0.266,-0.607
-0.688,-0.283,-0.609
-0.651,-0.276,-0.657
-0.657,-0.200,-0.679
-0.729,-0.094,-0.626
-0.721,-0.173,-0.594
-0.755,-0.172,-0.589
-0.750,-0.163,-0.633
-0.823,-0.162,-0.575
-0.788,-0.245,-0.481
-0.656,-0.225,-0.458
-0.505,-0.281,-0.483
-0.479,-0.287,-0.438
-0.491,-0.224,-0.402
-0.554,-0.281,-0.390
-0.550,-0.278,-0.401
-0.574,-0.159,-0.489
-0.563,-0.123,-0.441
-0.520,-0.106,-0.458
-0.636,-0.216,-0.569
-1.061,-0.212,-1.086
-1.157,-0.110,-1.393
-1.115,-0.070,-1.123
-1.172,-0.095,-0.945
-1.138,-0.162,-0.895
-1.107,-0.241,-0.792
-1.195,-0.253,-0.829
-1.318,-0.226,-0.826
-1.006,0.031,-0.712
-0.807,-0.037,-0.647
-0.790,-0.039,-0.615
-0.755,-0.071,-0.592
-0.654,-0.054,-0.622
-0.651,0.010,-0.594
-0.685,0.065,-0.495
-0.681,0.055,-0.388
-0.701,0.043,-0.334
-0.673,0.009,-0.277
-0.740,-0.026,-0.231
-0.742,-0.045,-0.233
-0.740,0.037,-0.310
-0.709,0.053,-0.578
-0.711,0.101,-0.724
-0.766,-0.062,-1.117
-0.584,0.073,-1.421
-0.433,-0.021,-1.392
-0.316,-0.473,-0.756
-0.397,-0.555,-0.399
-0.520,-0.482,-0.168
-1.072,0.340,-0.341
-1.828,-0.233,-1.329
-0.855,-0.439,-1.412
-0.772,0.000,-0.671
-1.202,0.546,0.181
-0.976,-0.020,0.194
-0.810,-0.282,-0.008
-0.870,-0.670,-0.741
-0.797,-0.659,-0.880
-0.583,-0.369,-0.866
-0.572,-0.413,-0.637
-0.675,-0.406,-0.507
-0.805,-0.432,-0.436
-0.819,-0.269,-0.539
-0.829,-0.197,-0.585
-0.810,-0.180,-0.515
-0.841,-0.351,-0.425
-0.801,-0.390,-0.487
-0.791,-0.423,-0.439
-0.824,-0.427,-0.410
-0.852,-0.395,-0.461
-0.839,-0.365,-0.492
-0.824,-0.302,-0.505
-0.835,-0.320,-0.406
-0.841,-0.335,-0.366
-0.850,-0.383,-0.344
-0.851,-0.407,-0.353
-0.848,-0.396,-0.352
-0.883,-0.424,-0.379
-0.879,-0.418,-0.414
-0.846,-0.406,-0.422
-0.845,-0.390,-0.394
-0.854,-0.385,-0.429
-0.852,-0.339,-0.446
-0.879,-0.275,-0.435
-0.881,-0.272,-0.399
-0.870,-0.302,-0.391
-0.859,-0.346,-0.401
-0.828,-0.352,-0.427
-0.837,-0.332,-0.409
-0.908,-0.300,-0.348
-0.942,-0.289,-0.317
-0.949,-0.304,-0.317
