aX,aY,aZ
-0.252,-0.799,0.617
-0.248,-0.794,0.623
-0.237,-0.792,0.616
-0.227,-0.805,0.590
-0.220,-0.811,0.574
-0.221,-0.813,0.562
-0.219,-0.818,0.555
-0.221,-0.819,0.549
-0.215,-0.820,0.537
-0.215,-0.826,0.533
-0.212,-0.840,0.535
-0.215,-0.832,0.549
-0.224,-0.813,0.576
-0.229,-0.790,0.609
-0.238,-0.781,0.635
-0.250,-0.771,0.650
-0.263,-0.778,0.652
-0.268,-0.794,0.652
-0.269,-0.807,0.638
-0.263,-0.805,0.626
-0.246,-0.779,0.630
-0.235,-0.762,0.640
-0.227,-0.759,0.650
-0.223,-0.757,0.650
-0.214,-0.758,0.638
-0.206,-0.771,0.619
-0.199,-0.784,0.606
-0.192,-0.794,0.590
-0.190,-0.799,0.581
-0.190,-0.809,0.582
-0.184,-0.807,0.583
-0.210,-0.803,0.597
-0.209,-0.790,0.614
-0.221,-0.776,0.630
-0.232,-0.752,0.650
-0.243,-0.742,0.669
-0.252,-0.734,0.685
-0.257,-0.732,0.703
-0.265,-0.726,0.720
-0.277,-0.713,0.734
-0.276,-0.728,0.728
-0.261,-0.744,0.711
-0.263,-0.752,0.692
-0.254,-0.759,0.671
-0.245,-0.766,0.649
-0.238,-0.774,0.632
-0.229,-0.787,0.618
-0.232,-0.792,0.600
-0.214,-0.797,0.587
-0.228,-0.803,0.573
-0.220,-0.809,0.566
-0.222,-0.815,0.561
-0.223,-0.822,0.560
-0.227,-0.814,0.562
-0.231,-0.805,0.570
-0.233,-0.793,0.585
-0.237,-0.789,0.599
-0.249,-0.780,0.615
-0.256,-0.775,0.628
-0.263,-0.773,0.637
-0.264,-0.772,0.643
-0.270,-0.770,0.646
-0.270,-0.768,0.650
-0.271,-0.762,0.652
-0.268,-0.758,0.655
-0.267,-0.752,0.661
-0.266,-0.752,0.668
-0.264,-0.752,0.666
-0.264,-0.753,0.662
-0.259,-0.752,0.658
-0.255,-0.752,0.658
-0.252,-0.755,0.656
-0.252,-0.757,0.650
-0.244,-0.756,0.647
-0.239,-0.761,0.643
-0.236,-0.764,0.638
-0.234,-0.764,0.638
-0.231,-0.767,0.641
-0.234,-0.759,0.630
-0.237,-0.756,0.623
-0.223,-0.753,0.668
-0.233,-0.759,0.651
-0.242,-0.771,0.648
-0.238,-0.781,0.650
-0.236,-0.780,0.649
-0.231,-0.770,0.636
-0.230,-0.773,0.625
-0.234,-0.780,0.631
-0.234,-0.776,0.637
-0.236,-0.781,0.632
-0.237,-0.782,0.621
-0.235,-0.774,0.615
-0.232,-0.776,0.615
-0.233,-0.774,0.615
-0.239,-0.780,0.618
-0.238,-0.783,0.618
-0.241,-0.782,0.613
-0.241,-0.785,0.618
-0.240,-0.780,0.629
-0.239,-0.778,0.624
-0.240,-0.780,0.624
-0.239,-0.776,0.630
-0.243,-0.772,0.632
-0.245,-0.771,0.629
-0.245,-0.773,0.631
-0.244,-0.777,0.630
-0.245,-0.784,0.625
-0.245,-0.781,0.618
-0.240,-0.782,0.614
-0.236,-0.785,0.611
-0.231,-0.783,0.612
-0.228,-0.791,0.615
-0.225,-0.787,0.617
-0.229,-0.783,0.623
-0.228,-0.777,0.622
-0.229,-0.765,0.617
-0.231,-0.754,0.624
-0.236,-0.752,0.653
-0.242,-0.751,0.671
-0.243,-0.750,0.669
-0.243,-0.752,0.671
-0.249,-0.744,0.674
-0.248,-0.743,0.676
-0.242,-0.741,0.677
-0.236,-0.743,0.678
-0.231,-0.743,0.678
-0.230,-0.744,0.673
-0.231,-0.743,0.676
-0.231,-0.745,0.683
-0.232,-0.735,0.691
-0.231,-0.732,0.689
-0.229,-0.737,0.698
-0.229,-0.729,0.710
-0.222,-0.730,0.710
-0.220,-0.730,0.707
-0.214,-0.738,0.699
-0.204,-0.747,0.692
-0.200,-0.751,0.684
-0.197,-0.760,0.662
-0.202,-0.758,0.648
-0.201,-0.760,0.647
-0.203,-0.775,0.657
-0.201,-0.772,0.652
-0.193,-0.759,0.644
-0.193,-0.754,0.638
-0.197,-0.771,0.654
-0.202,-0.775,0.655
-0.201,-0.764,0.654
-0.197,-0.765,0.663
-0.206,-0.763,0.674
-0.203,-0.753,0.675
-0.201,-0.756,0.674
-0.194,-0.764,0.668
-0.194,-0.762,0.661
-0.191,-0.765,0.657
-0.187,-0.771,0.655
-0.191,-0.771,0.654
-0.191,-0.769,0.653
-0.199,-0.764,0.657
-0.199,-0.773,0.656
-0.197,-0.772,0.657
-0.202,-0.768,0.659
-0.202,-0.767,0.664
-0.204,-0.772,0.657
-0.202,-0.782,0.651
-0.195,-0.773,0.648
-0.194,-0.769,0.644
-0.194,-0.770,0.647
-0.200,-0.778,0.655
-0.201,-0.779,0.661
-0.197,-0.773,0.658
-0.186,-0.770,0.650
-0.188,-0.775,0.648
-0.184,-0.785,0.635
-0.179,-0.782,0.631
-0.181,-0.780,0.631
-0.184,-0.786,0.633
-0.191,-0.781,0.636
-0.194,-0.780,0.640
-0.197,-0.777,0.647
-0.197,-0.778,0.648
-0.196,-0.778,0.649
-0.192,-0.772,0.639
-0.192,-0.780,0.635
-0.193,-0.785,0.631
-0.198,-0.789,0.625
-0.205,-0.793,0.617
-0.212,-0.796,0.612
-0.211,-0.797,0.614
-0.207,-0.800,0.618
-0.203,-0.795,0.620
-0.212,-0.780,0.635
-0.220,-0.781,0.628
-0.221,-0.779,0.640
-0.213,-0.788,0.625
-0.207,-0.788,0.617
-0.204,-0.789,0.622
-0.203,-0.796,0.619
-0.204,-0.790,0.626
-0.207,-0.787,0.629
-0.211,-0.788,0.633
-0.202,-0.786,0.631
-0.200,-0.788,0.629
-0.197,-0.788,0.623
-0.197,-0.792,0.622
-0.200,-0.791,0.626
-0.198,-0.789,0.630
-0.198,-0.777,0.623
-0.196,-0.778,0.626
-0.196,-0.790,0.627
-0.197,-0.798,0.614
-0.201,-0.801,0.612
-0.200,-0.807,0.616
-0.207,-0.790,0.615
-0.212,-0.798,0.614
-0.223,-0.796,0.623
-0.218,-0.789,0.625
-0.214,-0.789,0.626
-0.215,-0.787,0.628
-0.212,-0.785,0.623
-0.214,-0.784,0.628
-0.215,-0.783,0.630
-0.215,-0.779,0.634
-0.216,-0.779,0.638
-0.219,-0.778,0.643
-0.221,-0.779,0.634
-0.220,-0.784,0.637
-0.218,-0.782,0.642
-0.216,-0.782,0.637
-0.217,-0.786,0.634
-0.207,-0.790,0.627
-0.202,-0.796,0.619
-0.203,-0.800,0.623
-0.207,-0.801,0.622
-0.208,-0.791,0.634
-0.207,-0.786,0.632
-0.206,-0.797,0.632
-0.189,-0.848,0.593
-0.201,-0.809,0.579
-0.138,-0.820,0.613
-0.185,-0.806,0.594
-0.165,-0.787,0.607
-0.196,-0.787,0.618
-0.193,-0.801,0.628
-0.196,-0.809,0.620
-0.195,-0.812,0.599
-0.199,-0.824,0.592
-0.201,-0.825,0.586
-0.204,-0.831,0.593
-0.220,-0.811,0.599
-0.220,-0.812,0.609
-0.220,-0.785,0.640
-0.202,-0.835,0.596
-0.209,-0.822,0.582
-0.211,-0.804,0.580
-0.231,-0.786,0.610
-0.225,-0.829,0.558
-0.219,-0.833,0.554
-0.228,-0.811,0.556
-0.237,-0.827,0.569
-0.232,-0.825,0.564
-0.236,-0.819,0.561
-0.239,-0.824,0.562
-0.241,-0.821,0.560
-0.247,-0.818,0.556
-0.249,-0.805,0.587
-0.256,-0.799,0.598
-0.258,-0.793,0.608
-0.260,-0.789,0.617
-0.255,-0.794,0.628
-0.246,-0.785,0.626
-0.234,-0.789,0.617
-0.229,-0.792,0.616
-0.224,-0.790,0.610
-0.217,-0.794,0.602
-0.217,-0.804,0.601
-0.211,-0.812,0.592
-0.205,-0.807,0.594
-0.207,-0.808,0.595
-0.206,-0.806,0.590
-0.204,-0.806,0.581
-0.211,-0.813,0.584
-0.219,-0.811,0.602
-0.216,-0.794,0.610
-0.217,-0.797,0.610
-0.214,-0.798,0.618
-0.214,-0.793,0.628
-0.218,-0.791,0.634
-0.222,-0.777,0.648
-0.225,-0.773,0.652
-0.223,-0.777,0.645
-0.215,-0.788,0.632
-0.211,-0.786,0.622
-0.211,-0.788,0.619
-0.215,-0.790,0.613
-0.216,-0.799,0.611
-0.220,-0.802,0.607
-0.226,-0.803,0.609
-0.228,-0.792,0.615
-0.225,-0.787,0.620
-0.229,-0.786,0.620
-0.229,-0.790,0.624
-0.223,-0.792,0.620
-0.219,-0.791,0.619
-0.215,-0.789,0.613
-0.212,-0.789,0.615
-0.209,-0.789,0.622
-0.208,-0.786,0.630
-0.212,-0.782,0.644
-0.215,-0.782,0.649
-0.213,-0.774,0.650
-0.218,-0.775,0.647
-0.213,-0.776,0.647
-0.216,-0.778,0.640
-0.209,-0.788,0.624
-0.209,-0.792,0.618
-0.211,-0.796,0.616
-0.212,-0.797,0.617
-0.211,-0.790,0.621
-0.213,-0.780,0.626
-0.213,-0.783,0.630
-0.216,-0.781,0.631
-0.214,-0.786,0.631
-0.213,-0.785,0.629
-0.211,-0.786,0.625
-0.212,-0.788,0.629
-0.210,-0.791,0.622
-0.207,-0.792,0.620
-0.208,-0.787,0.624
-0.207,-0.783,0.624
-0.209,-0.783,0.625
-0.216,-0.788,0.630
-0.216,-0.789,0.626
-0.213,-0.788,0.621
-0.213,-0.790,0.619
-0.217,-0.788,0.617
-0.215,-0.790,0.619
-0.216,-0.795,0.616
-0.216,-0.794,0.617
-0.214,-0.796,0.619
-0.214,-0.795,0.618
-0.215,-0.791,0.618
-0.215,-0.791,0.618
-0.212,-0.793,0.620
-0.211,-0.791,0.620
-0.213,-0.790,0.621
-0.215,-0.790,0.619
-0.213,-0.790,0.621
-0.215,-0.790,0.626
-0.214,-0.785,0.623
-0.215,-0.787,0.628
-0.214,-0.784,0.632
-0.220,-0.783,0.634
-0.221,-0.783,0.630
-0.219,-0.788,0.625
-0.216,-0.792,0.630
-0.213,-0.790,0.622
-0.212,-0.790,0.620
-0.211,-0.794,0.613
-0.208,-0.795,0.615
-0.207,-0.795,0.617
-0.208,-0.790,0.623
-0.207,-0.787,0.623
-0.210,-0.786,0.624
-0.209,-0.789,0.624
-0.210,-0.787,0.625
-0.212,-0.790,0.624
-0.212,-0.790,0.623
-0.213,-0.796,0.620
-0.210,-0.795,0.622
-0.211,-0.788,0.620
-0.216,-0.791,0.621
-0.219,-0.794,0.622
-0.214,-0.794,0.617
-0.214,-0.793,0.615
-0.214,-0.793,0.613
-0.215,-0.793,0.617
-0.218,-0.793,0.619
-0.219,-0.791,0.624
-0.222,-0.783,0.624
-0.219,-0.785,0.624
-0.218,-0.787,0.625
-0.210,-0.791,0.619
-0.213,-0.794,0.613
-0.218,-0.795,0.616
-0.217,-0.793,0.616
-0.211,-0.798,0.609
-0.212,-0.796,0.604
-0.211,-0.801,0.607
-0.215,-0.805,0.604
-0.214,-0.805,0.604
-0.211,-0.802,0.603
-0.216,-0.798,0.609
-0.217,-0.797,0.615
-0.213,-0.792,0.615
-0.214,-0.794,0.619
-0.215,-0.795,0.620
-0.213,-0.796,0.613
-0.217,-0.794,0.616
-0.218,-0.793,0.619
-0.214,-0.794,0.613
-0.210,-0.797,0.607
-0.211,-0.798,0.605
-0.215,-0.802,0.600
-0.213,-0.801,0.601
-0.215,-0.800,0.600
-0.215,-0.802,0.599
-0.216,-0.803,0.602
-0.219,-0.801,0.604
-0.220,-0.795,0.608
-0.224,-0.796,0.612
-0.226,-0.797,0.615
-0.225,-0.794,0.618
-0.226,-0.793,0.625
-0.224,-0.784,0.619
-0.218,-0.785,0.619
-0.214,-0.793,0.609
-0.213,-0.798,0.608
-0.206,-0.799,0.608
-0.215,-0.796,0.607
-0.214,-0.798,0.609
-0.214,-0.801,0.612
-0.214,-0.798,0.610
-0.217,-0.797,0.613
-0.219,-0.791,0.619
-0.218,-0.792,0.618
-0.218,-0.796,0.614
-0.214,-0.800,0.606
-0.217,-0.799,0.612
-0.217,-0.797,0.615
-0.220,-0.795,0.616
-0.220,-0.793,0.613
-0.217,-0.792,0.611
-0.218,-0.790,0.615
-0.216,-0.798,0.613
-0.217,-0.798,0.615
-0.219,-0.794,0.612
-0.222,-0.796,0.615
-0.220,-0.796,0.611
-0.216,-0.796,0.610
-0.213,-0.796,0.606
-0.215,-0.795,0.609
-0.218,-0.796,0.613
-0.219,-0.797,0.615
-0.218,-0.798,0.614
-0.216,-0.796,0.614
-0.213,-0.791,0.617
-0.212,-0.792,0.614
-0.214,-0.800,0.612
-0.212,-0.799,0.611
-0.214,-0.796,0.613
-0.217,-0.793,0.611
-0.213,-0.797,0.613
-0.214,-0.797,0.612
-0.211,-0.797,0.613
-0.212,-0.793,0.616
-0.217,-0.792,0.623
-0.216,-0.791,0.625
-0.215,-0.795,0.616
-0.215,-0.798,0.612
-0.211,-0.797,0.612
-0.212,-0.796,0.612
-0.208,-0.800,0.608
-0.216,-0.796,0.610
-0.217,-0.797,0.614
-0.215,-0.795,0.614
-0.214,-0.795,0.612
-0.215,-0.795,0.618
-0.218,-0.794,0.620
-0.216,-0.794,0.614
-0.215,-0.795,0.610
-0.219,-0.798,0.612
-0.215,-0.795,0.614
-0.218,-0.793,0.618
-0.217,-0.793,0.616
-0.214,-0.790,0.619
-0.208,-0.794,0.617
-0.210,-0.795,0.617
-0.210,-0.792,0.615
-0.212,-0.793,0.618
-0.214,-0.793,0.617
-0.213,-0.793,0.620
-0.211,-0.792,0.623
-0.211,-0.791,0.624
-0.215,-0.789,0.622
-0.218,-0.789,0.627
-0.218,-0.785,0.632
-0.216,-0.781,0.630
-0.213,-0.788,0.624
-0.215,-0.791,0.621
-0.210,-0.791,0.618
-0.213,-0.797,0.612
-0.214,-0.797,0.610
-0.214,-0.803,0.606
-0.213,-0.804,0.605
-0.212,-0.804,0.601
-0.218,-0.803,0.604
-0.220,-0.801,0.609
-0.217,-0.801,0.611
-0.218,-0.798,0.614
-0.215,-0.795,0.614
-0.216,-0.796,0.613
-0.213,-0.794,0.613
-0.212,-0.793,0.618
-0.211,-0.793,0.620
-0.216,-0.787,0.624
-0.213,-0.789,0.622
-0.213,-0.797,0.611
-0.207,-0.801,0.608
-0.206,-0.802,0.605
-0.209,-0.802,0.615
-0.204,-0.795,0.624
-0.194,-0.781,0.636
-0.190,-0.781,0.650
-0.189,-0.778,0.656
-0.185,-0.775,0.650
-0.178,-0.793,0.641
-0.176,-0.798,0.637
-0.178,-0.803,0.627
-0.169,-0.805,0.618
-0.170,-0.811,0.613
-0.166,-0.814,0.614
-0.176,-0.810,0.616
-0.181,-0.810,0.620
-0.187,-0.814,0.607
-0.192,-0.811,0.609
-0.197,-0.811,0.613
-0.208,-0.803,0.630
-0.227,-0.805,0.630
-0.235,-0.808,0.628
-0.241,-0.814,0.632
-0.244,-0.793,0.628
-0.248,-0.788,0.627
-0.258,-0.784,0.626
-0.275,-0.777,0.619
-0.280,-0.778,0.618
-0.284,-0.776,0.618
-0.295,-0.772,0.615
-0.293,-0.763,0.610
-0.293,-0.767,0.605
-0.295,-0.769,0.604
-0.297,-0.767,0.588
-0.299,-0.763,0.586
-0.300,-0.762,0.584
-0.307,-0.764,0.588
-0.309,-0.768,0.592
-0.315,-0.772,0.596
-0.323,-0.787,0.586
-0.317,-0.788,0.588
-0.318,-0.785,0.585
-0.327,-0.772,0.583
-0.320,-0.772,0.583
-0.337,-0.776,0.579
-0.335,-0.785,0.580
-0.332,-0.789,0.577
-0.321,-0.803,0.559
-0.319,-0.807,0.563
-0.322,-0.807,0.556
-0.320,-0.802,0.551
-0.320,-0.801,0.552
-0.320,-0.801,0.555
-0.325,-0.793,0.556
-0.327,-0.777,0.566
-0.333,-0.775,0.572
-0.334,-0.776,0.568
-0.322,-0.781,0.563
-0.312,-0.785,0.561
-0.307,-0.792,0.555
-0.308,-0.798,0.561
-0.313,-0.793,0.559
-0.318,-0.795,0.556
-0.318,-0.799,0.560
-0.319,-0.805,0.560
-0.318,-0.810,0.556
-0.310,-0.814,0.553
-0.304,-0.818,0.554
-0.317,-0.818,0.554
-0.319,-0.814,0.552
-0.315,-0.811,0.555
-0.312,-0.799,0.553
-0.307,-0.796,0.557
-0.308,-0.798,0.553
-0.308,-0.795,0.556
-0.302,-0.796,0.557
-0.299,-0.798,0.554
-0.299,-0.812,0.556
-0.307,-0.822,0.569
-0.298,-0.819,0.551
-0.298,-0.813,0.552
-0.294,-0.809,0.554
-0.299,-0.810,0.553
-0.290,-0.800,0.556
-0.287,-0.799,0.558
-0.287,-0.798,0.566
-0.292,-0.797,0.570
-0.292,-0.795,0.570
-0.295,-0.798,0.570
-0.293,-0.799,0.568
-0.292,-0.792,0.572
-0.300,-0.796,0.577
-0.304,-0.803,0.581
-0.306,-0.807,0.590
-0.299,-0.790,0.585
-0.290,-0.778,0.581
-0.287,-0.785,0.585
-0.306,-0.807,0.578
-0.302,-0.811,0.575
-0.301,-0.815,0.568
-0.297,-0.814,0.566
-0.295,-0.811,0.567
-0.300,-0.811,0.574
-0.295,-0.818,0.571
-0.281,-0.813,0.562
-0.280,-0.809,0.566
-0.281,-0.805,0.577
-0.281,-0.809,0.581
-0.285,-0.810,0.577
-0.281,-0.811,0.570
-0.282,-0.805,0.570
-0.281,-0.802,0.578
-0.278,-0.796,0.585
-0.280,-0.799,0.583
-0.278,-0.806,0.584
-0.281,-0.803,0.583
-0.278,-0.797,0.584
-0.277,-0.796,0.585
-0.277,-0.798,0.585
-0.277,-0.796,0.588
-0.279,-0.798,0.589
-0.278,-0.801,0.582
-0.276,-0.802,0.585
-0.276,-0.803,0.584
-0.281,-0.802,0.580
-0.279,-0.806,0.579
-0.276,-0.806,0.575
-0.278,-0.807,0.578
-0.277,-0.799,0.581
-0.275,-0.801,0.579
-0.277,-0.800,0.578
-0.280,-0.800,0.582
-0.284,-0.799,0.583
-0.285,-0.793,0.584
-0.285,-0.790,0.594
-0.293,-0.793,0.595
-0.298,-0.799,0.591
-0.281,-0.800,0.585
-0.274,-0.802,0.584
-0.270,-0.809,0.573
-0.273,-0.811,0.570
-0.274,-0.808,0.570
-0.284,-0.805,0.576
-0.281,-0.799,0.582
-0.278,-0.795,0.583
-0.276,-0.790,0.590
-0.278,-0.790,0.593
-0.279,-0.791,0.594
-0.274,-0.788,0.593
-0.277,-0.792,0.593
-0.277,-0.792,0.593
-0.279,-0.797,0.594
-0.279,-0.805,0.588
-0.274,-0.801,0.586
-0.271,-0.798,0.583
-0.274,-0.798,0.589
-0.279,-0.797,0.590
-0.277,-0.796,0.589
-0.277,-0.796,0.587
-0.278,-0.796,0.588
-0.277,-0.793,0.589
-0.280,-0.792,0.600
-0.284,-0.789,0.596
-0.282,-0.788,0.594
-0.287,-0.792,0.608
-0.286,-0.787,0.603
-0.274,-0.794,0.589
-0.280,-0.794,0.593
-0.280,-0.793,0.596
-0.279,-0.783,0.596
-0.272,-0.785,0.592
-0.274,-0.784,0.593
-0.277,-0.789,0.592
-0.276,-0.794,0.596
-0.276,-0.792,0.597
-0.276,-0.791,0.597
-0.273,-0.791,0.596
-0.278,-0.794,0.598
-0.277,-0.793,0.600
-0.282,-0.796,0.597
-0.280,-0.800,0.597
-0.281,-0.797,0.595
-0.280,-0.793,0.592
-0.276,-0.790,0.592
-0.276,-0.790,0.594
-0.277,-0.787,0.592
-0.274,-0.785,0.590
-0.271,-0.781,0.591
-0.276,-0.784,0.594
-0.278,-0.787,0.596
-0.281,-0.786,0.600
-0.280,-0.787,0.600
-0.278,-0.786,0.598
-0.281,-0.789,0.597
-0.284,-0.787,0.596
-0.281,-0.788,0.590
-0.282,-0.787,0.591
-0.283,-0.788,0.588
-0.279,-0.796,0.584
-0.279,-0.796,0.584
-0.279,-0.796,0.584
-0.275,-0.787,0.588
-0.277,-0.792,0.599
-0.279,-0.796,0.601
-0.280,-0.795,0.602
-0.279,-0.786,0.604
-0.280,-0.787,0.602
-0.285,-0.793,0.598
-0.284,-0.795,0.591
-0.281,-0.796,0.585
-0.281,-0.800,0.587
-0.282,-0.800,0.585
-0.281,-0.797,0.588
-0.278,-0.801,0.585
-0.277,-0.798,0.585
-0.280,-0.794,0.587
-0.279,-0.792,0.587
-0.283,-0.794,0.588
-0.282,-0.793,0.589
-0.283,-0.798,0.595
-0.288,-0.794,0.594
-0.284,-0.791,0.595
-0.282,-0.790,0.594
-0.283,-0.788,0.589
-0.280,-0.791,0.589
-0.280,-0.791,0.588
-0.286,-0.789,0.591
-0.285,-0.791,0.590
-0.282,-0.793,0.588
-0.281,-0.793,0.592
-0.284,-0.793,0.594
-0.284,-0.787,0.601
-0.289,-0.789,0.602
-0.283,-0.791,0.588
-0.284,-0.795,0.586
-0.282,-0.793,0.588
-0.277,-0.796,0.585
-0.276,-0.797,0.584
-0.276,-0.799,0.583
-0.280,-0.801,0.587
-0.280,-0.799,0.584
-0.282,-0.797,0.585
-0.279,-0.797,0.587
-0.280,-0.794,0.589
-0.280,-0.793,0.591
-0.277,-0.793,0.593
-0.278,-0.793,0.587
-0.277,-0.791,0.584
-0.281,-0.791,0.586
-0.276,-0.793,0.585
-0.282,-0.793,0.583
-0.284,-0.797,0.587
-0.286,-0.798,0.586
-0.284,-0.798,0.586
-0.283,-0.796,0.588
-0.283,-0.798,0.589
-0.283,-0.796,0.588
-0.285,-0.793,0.586
-0.283,-0.794,0.589
-0.286,-0.795,0.591
-0.285,-0.798,0.598
-0.284,-0.797,0.591
-0.280,-0.794,0.589
-0.277,-0.797,0.587
-0.274,-0.793,0.583
-0.276,-0.791,0.587
-0.275,-0.788,0.584
-0.275,-0.791,0.588
-0.278,-0.793,0.589
-0.279,-0.796,0.595
-0.280,-0.794,0.597
-0.283,-0.790,0.594
-0.283,-0.786,0.592
-0.286,-0.793,0.593
-0.284,-0.793,0.595
-0.281,-0.793,0.590
-0.279,-0.794,0.587
-0.280,-0.795,0.588
-0.281,-0.799,0.588
-0.277,-0.798,0.583
-0.278,-0.796,0.586
-0.283,-0.793,0.591
-0.279,-0.790,0.590
-0.281,-0.792,0.595
-0.282,-0.789,0.595
-0.279,-0.788,0.597
-0.282,-0.788,0.597
-0.278,-0.790,0.595
-0.281,-0.789,0.596
-0.282,-0.790,0.596
-0.280,-0.785,0.597
-0.283,-0.792,0.599
-0.284,-0.793,0.597
-0.280,-0.793,0.591
-0.276,-0.786,0.595
-0.279,-0.787,0.595
-0.281,-0.789,0.597
-0.280,-0.792,0.600
-0.277,-0.788,0.597
-0.281,-0.789,0.598
-0.285,-0.791,0.597
-0.286,-0.790,0.595
-0.284,-0.788,0.594
-0.283,-0.794,0.591
-0.284,-0.793,0.592
-0.285,-0.792,0.590
-0.283,-0.793,0.595
-0.284,-0.793,0.597
-0.289,-0.787,0.601
-0.284,-0.787,0.600
-0.284,-0.786,0.600
-0.284,-0.782,0.601
-0.284,-0.780,0.597
-0.285,-0.781,0.600
-0.284,-0.785,0.593
-0.283,-0.789,0.590
-0.283,-0.789,0.591
-0.285,-0.793,0.591
-0.284,-0.791,0.592
-0.285,-0.786,0.595
-0.283,-0.785,0.590
-0.282,-0.791,0.582
-0.283,-0.796,0.592
-0.282,-0.791,0.596
-0.282,-0.791,0.588
-0.285,-0.795,0.586
-0.284,-0.797,0.586
-0.285,-0.794,0.588
-0.280,-0.788,0.589
-0.280,-0.787,0.593
-0.289,-0.787,0.598
-0.284,-0.787,0.603
-0.284,-0.788,0.600
-0.281,-0.791,0.593
-0.284,-0.791,0.595
-0.284,-0.788,0.596
-0.280,-0.791,0.592
-0.279,-0.793,0.585
-0.284,-0.797,0.587
-0.282,-0.800,0.589
-0.282,-0.796,0.587
-0.278,-0.796,0.583
-0.281,-0.792,0.588
-0.276,-0.784,0.589
-0.281,-0.782,0.600
-0.279,-0.784,0.602
-0.283,-0.794,0.600
-0.282,-0.793,0.597
-0.284,-0.795,0.587
-0.285,-0.797,0.588
-0.285,-0.800,0.589
-0.281,-0.801,0.583
-0.277,-0.802,0.582
-0.276,-0.792,0.587
-0.284,-0.794,0.591
-0.281,-0.793,0.593
-0.281,-0.788,0.592
-0.280,-0.789,0.594
-0.280,-0.787,0.596
-0.278,-0.786,0.600
-0.279,-0.786,0.600
-0.281,-0.786,0.599
-0.284,-0.789,0.598
-0.287,-0.788,0.602
-0.285,-0.785,0.598
-0.283,-0.788,0.588
-0.282,-0.794,0.594
-0.282,-0.794,0.598
-0.284,-0.792,0.594
-0.282,-0.795,0.590
-0.282,-0.795,0.591
-0.280,-0.796,0.589
-0.279,-0.792,0.592
-0.276,-0.788,0.594
-0.278,-0.788,0.589
-0.276,-0.791,0.597
-0.278,-0.788,0.594
-0.279,-0.791,0.593
-0.278,-0.794,0.599
-0.277,-0.791,0.596
-0.276,-0.790,0.596
-0.280,-0.785,0.600
-0.283,-0.787,0.601
-0.281,-0.788,0.597
-0.276,-0.789,0.593
-0.280,-0.789,0.596
-0.281,-0.787,0.599
-0.282,-0.786,0.597
-0.282,-0.788,0.596
-0.284,-0.789,0.595
-0.286,-0.792,0.597
-0.281,-0.790,0.600
-0.280,-0.788,0.599
-0.286,-0.792,0.597
-0.281,-0.791,0.595
-0.279,-0.793,0.591
-0.276,-0.795,0.594
-0.272,-0.793,0.596
-0.273,-0.792,0.594
-0.271,-0.788,0.588
-0.268,-0.791,0.589
-0.270,-0.789,0.586
-0.279,-0.792,0.600
-0.285,-0.793,0.603
-0.287,-0.795,0.605
-0.286,-0.786,0.603
-0.284,-0.784,0.596
-0.291,-0.786,0.605
-0.285,-0.787,0.605
-0.285,-0.786,0.602
-0.277,-0.786,0.594
-0.281,-0.791,0.586
-0.280,-0.795,0.589
-0.281,-0.796,0.585
-0.280,-0.796,0.589
-0.280,-0.791,0.588
-0.280,-0.788,0.592
-0.283,-0.790,0.604
-0.283,-0.783,0.601
-0.284,-0.784,0.603
-0.280,-0.786,0.604
-0.284,-0.783,0.606
-0.286,-0.784,0.604
-0.282,-0.787,0.602
-0.280,-0.794,0.597
-0.279,-0.793,0.585
-0.279,-0.794,0.583
-0.273,-0.796,0.575
-0.275,-0.797,0.577
-0.273,-0.797,0.576
-0.273,-0.799,0.580
-0.278,-0.793,0.586
-0.278,-0.791,0.588
-0.287,-0.786,0.604
-0.291,-0.788,0.603
-0.292,-0.784,0.602
-0.290,-0.788,0.599
-0.287,-0.788,0.598
-0.283,-0.787,0.594
-0.278,-0.791,0.588
-0.276,-0.793,0.589
-0.278,-0.792,0.587
-0.277,-0.788,0.594
-0.280,-0.788,0.596
-0.284,-0.789,0.597
-0.281,-0.784,0.599
-0.280,-0.785,0.602
-0.290,-0.786,0.609
-0.285,-0.785,0.602
-0.283,-0.788,0.598
-0.280,-0.791,0.589
-0.278,-0.792,0.592
-0.280,-0.790,0.586
-0.276,-0.793,0.585
-0.282,-0.796,0.589
-0.282,-0.792,0.591
-0.284,-0.793,0.596
-0.285,-0.793,0.601
-0.288,-0.790,0.604
-0.284,-0.789,0.598
-0.284,-0.793,0.598
-0.284,-0.791,0.601
-0.280,-0.785,0.600
-0.276,-0.786,0.597
-0.274,-0.787,0.593
-0.275,-0.790,0.597
-0.272,-0.784,0.595
-0.272,-0.783,0.598
-0.278,-0.784,0.603
-0.284,-0.789,0.602
-0.282,-0.791,0.598
-0.277,-0.791,0.589
-0.279,-0.793,0.592
-0.280,-0.792,0.597
-0.278,-0.791,0.594
-0.281,-0.792,0.589
-0.282,-0.796,0.590
-0.283,-0.788,0.603
-0.279,-0.790,0.604
-0.282,-0.786,0.602
-0.284,-0.790,0.600
-0.281,-0.786,0.592
-0.278,-0.792,0.594
-0.280,-0.793,0.595
-0.275,-0.791,0.588
-0.274,-0.793,0.589
-0.276,-0.794,0.592
-0.280,-0.794,0.594
-0.279,-0.796,0.589
-0.280,-0.796,0.592
-0.278,-0.793,0.590
-0.281,-0.789,0.592
-0.280,-0.792,0.594
-0.280,-0.794,0.592
-0.280,-0.791,0.591
-0.276,-0.790,0.589
-0.281,-0.793,0.593
-0.278,-0.793,0.595
-0.280,-0.791,0.596
-0.281,-0.782,0.592
-0.282,-0.793,0.597
-0.284,-0.794,0.597
-0.284,-0.795,0.597
-0.281,-0.791,0.593
-0.281,-0.790,0.593
-0.283,-0.790,0.594
-0.278,-0.794,0.591
-0.273,-0.796,0.593
-0.276,-0.791,0.591
-0.273,-0.788,0.587
-0.275,-0.791,0.587
-0.275,-0.798,0.585
-0.275,-0.800,0.587
-0.271,-0.799,0.589
-0.276,-0.797,0.589
-0.281,-0.794,0.592
-0.281,-0.789,0.595
-0.282,-0.791,0.597
-0.281,-0.789,0.597
-0.284,-0.788,0.595
-0.281,-0.789,0.593
-0.283,-0.794,0.588
-0.281,-0.797,0.589
-0.278,-0.798,0.584
-0.279,-0.796,0.581
-0.279,-0.798,0.584
-0.280,-0.798,0.584
-0.281,-0.800,0.584
-0.278,-0.798,0.587
-0.280,-0.800,0.587
-0.279,-0.799,0.590
-0.278,-0.796,0.591
-0.277,-0.794,0.589
-0.277,-0.792,0.592
-0.277,-0.789,0.593
-0.276,-0.790,0.595
-0.277,-0.788,0.594
-0.279,-0.786,0.596
-0.282,-0.788,0.598
-0.279,-0.792,0.601
-0.276,-0.795,0.589
-0.275,-0.802,0.579
-0.277,-0.801,0.577
-0.277,-0.807,0.579
-0.274,-0.799,0.580
-0.274,-0.797,0.577
-0.276,-0.798,0.576
-0.277,-0.799,0.585
-0.280,-0.789,0.588
-0.278,-0.793,0.589
-0.280,-0.796,0.595
-0.280,-0.794,0.589
-0.277,-0.795,0.588
-0.280,-0.800,0.580
-0.287,-0.806,0.576
-0.283,-0.805,0.578
-0.281,-0.806,0.575
-0.280,-0.808,0.572
-0.280,-0.807,0.575
-0.276,-0.803,0.575
-0.277,-0.803,0.572
-0.278,-0.803,0.574
-0.283,-0.797,0.585
-0.283,-0.794,0.593
-0.283,-0.791,0.592
-0.278,-0.793,0.593
-0.282,-0.792,0.592
-0.284,-0.792,0.594
-0.276,-0.791,0.584
-0.278,-0.799,0.584
-0.281,-0.802,0.582
-0.284,-0.805,0.576
-0.278,-0.804,0.574
-0.277,-0.806,0.574
-0.280,-0.808,0.575
-0.275,-0.808,0.571
-0.275,-0.806,0.568
-0.277,-0.805,0.576
-0.279,-0.802,0.581
-0.279,-0.803,0.583
-0.279,-0.798,0.582
-0.283,-0.794,0.585
-0.280,-0.792,0.590
-0.280,-0.792,0.593
-0.285,-0.799,0.594
-0.285,-0.802,0.594
-0.279,-0.801,0.584
-0.277,-0.800,0.580
-0.277,-0.800,0.577
-0.274,-0.797,0.574
-0.273,-0.803,0.576
-0.274,-0.808,0.576
-0.277,-0.806,0.572
-0.278,-0.807,0.573
-0.276,-0.804,0.577
-0.280,-0.803,0.581
-0.283,-0.795,0.583
-0.286,-0.795,0.585
-0.288,-0.802,0.587
-0.284,-0.797,0.585
-0.279,-0.798,0.582
-0.277,-0.797,0.583
-0.283,-0.799,0.582
-0.280,-0.800,0.581
-0.277,-0.804,0.571
-0.277,-0.805,0.573
-0.279,-0.806,0.576
-0.281,-0.807,0.578
-0.277,-0.806,0.572
-0.277,-0.805,0.569
-0.283,-0.808,0.575
-0.284,-0.805,0.580
-0.281,-0.801,0.579
-0.284,-0.799,0.578
-0.284,-0.799,0.581
-0.285,-0.799,0.585
-0.283,-0.796,0.585
-0.284,-0.795,0.588
-0.282,-0.796,0.589
-0.284,-0.795,0.585
-0.284,-0.800,0.592
-0.281,-0.799,0.591
-0.283,-0.801,0.584
-0.279,-0.800,0.580
-0.279,-0.800,0.576
-0.276,-0.802,0.570
-0.279,-0.806,0.571
-0.280,-0.806,0.569
-0.276,-0.807,0.569
-0.276,-0.806,0.574
-0.277,-0.803,0.579
-0.284,-0.800,0.581
-0.285,-0.799,0.579
-0.283,-0.799,0.579
-0.283,-0.802,0.581
-0.284,-0.803,0.581
-0.284,-0.807,0.577
-0.277,-0.803,0.573
-0.277,-0.805,0.576
-0.279,-0.804,0.578
-0.282,-0.798,0.579
-0.284,-0.799,0.576
-0.284,-0.804,0.578
-0.283,-0.800,0.584
-0.285,-0.794,0.591
-0.284,-0.792,0.588
-0.283,-0.796,0.584
-0.284,-0.802,0.576
-0.282,-0.803,0.573
-0.280,-0.800,0.575
-0.284,-0.800,0.578
-0.284,-0.799,0.578
-0.284,-0.797,0.580
-0.286,-0.805,0.582
-0.286,-0.813,0.584
-0.283,-0.804,0.578
-0.281,-0.801,0.573
-0.282,-0.802,0.574
-0.280,-0.805,0.576
-0.280,-0.806,0.573
-0.279,-0.807,0.575
-0.277,-0.802,0.575
-0.279,-0.807,0.577
-0.282,-0.808,0.577
-0.281,-0.805,0.573
-0.278,-0.804,0.570
-0.279,-0.803,0.575
-0.276,-0.801,0.576
-0.276,-0.804,0.575
-0.281,-0.805,0.577
-0.279,-0.810,0.575
-0.274,-0.806,0.575
-0.276,-0.804,0.573
-0.278,-0.803,0.578
-0.279,-0.805,0.584
-0.279,-0.803,0.583
-0.277,-0.807,0.579
-0.278,-0.805,0.580
-0.277,-0.802,0.581
-0.279,-0.797,0.579
-0.278,-0.795,0.584
-0.278,-0.794,0.582
-0.280,-0.793,0.590
-0.283,-0.793,0.598
-0.282,-0.791,0.599
-0.284,-0.789,0.592
-0.285,-0.791,0.593
-0.284,-0.792,0.594
-0.290,-0.794,0.594
-0.283,-0.794,0.584
-0.280,-0.800,0.581
-0.277,-0.808,0.573
-0.275,-0.804,0.571
-0.274,-0.805,0.570
-0.275,-0.806,0.574
-0.273,-0.805,0.579
-0.278,-0.804,0.583
-0.275,-0.796,0.586
-0.278,-0.794,0.590
-0.280,-0.799,0.586
-0.278,-0.799,0.588
-0.277,-0.798,0.590
-0.275,-0.794,0.587
-0.277,-0.794,0.585
-0.276,-0.796,0.584
-0.279,-0.797,0.581
-0.278,-0.798,0.584
-0.277,-0.795,0.584
-0.279,-0.794,0.587
-0.282,-0.796,0.590
-0.286,-0.799,0.593
-0.282,-0.798,0.590
-0.279,-0.799,0.586
-0.276,-0.799,0.585
-0.279,-0.796,0.589
-0.277,-0.792,0.588
-0.273,-0.797,0.583
-0.272,-0.797,0.584
-0.277,-0.797,0.594
-0.277,-0.794,0.594
-0.277,-0.794,0.591
-0.278,-0.795,0.593
-0.279,-0.793,0.591
-0.276,-0.794,0.590
-0.273,-0.797,0.590
-0.277,-0.795,0.592
-0.274,-0.793,0.591
-0.278,-0.795,0.586
-0.277,-0.799,0.587
-0.277,-0.803,0.588
-0.276,-0.794,0.590
-0.278,-0.794,0.583
-0.279,-0.800,0.583
-0.279,-0.799,0.589
-0.278,-0.793,0.594
-0.279,-0.792,0.594
-0.283,-0.792,0.590
-0.282,-0.795,0.588
-0.283,-0.800,0.585
-0.281,-0.799,0.589
-0.278,-0.794,0.592
-0.281,-0.794,0.588
-0.280,-0.795,0.590
-0.279,-0.793,0.589
-0.279,-0.793,0.591
-0.278,-0.799,0.589
-0.273,-0.801,0.583
-0.275,-0.801,0.583
-0.276,-0.798,0.583
-0.278,-0.795,0.587
-0.279,-0.796,0.588
-0.277,-0.797,0.588
-0.279,-0.799,0.588
-0.279,-0.798,0.587
-0.275,-0.797,0.587
-0.275,-0.793,0.590
-0.279,-0.793,0.596
-0.282,-0.790,0.596
-0.283,-0.797,0.591
-0.282,-0.799,0.586
-0.280,-0.799,0.587
-0.279,-0.794,0.588
-0.281,-0.794,0.585
-0.281,-0.797,0.584
-0.279,-0.803,0.579
-0.278,-0.805,0.579
-0.274,-0.801,0.576
-0.276,-0.801,0.580
-0.275,-0.798,0.582
-0.284,-0.797,0.589
-0.282,-0.793,0.594
-0.281,-0.793,0.592
-0.281,-0.797,0.589
-0.280,-0.794,0.587
-0.280,-0.795,0.589
-0.280,-0.796,0.589
-0.279,-0.797,0.588
-0.282,-0.800,0.583
-0.279,-0.807,0.582
-0.279,-0.802,0.581
-0.279,-0.801,0.584
-0.277,-0.797,0.583
-0.275,-0.799,0.577
-0.278,-0.802,0.579
-0.275,-0.794,0.584
-0.273,-0.790,0.583
-0.275,-0.791,0.586
-0.284,-0.794,0.590
-0.286,-0.795,0.588
-0.281,-0.796,0.586
-0.282,-0.802,0.588
-0.282,-0.796,0.592
-0.283,-0.795,0.589
-0.285,-0.801,0.586
-0.281,-0.800,0.578
-0.280,-0.800,0.581
-0.279,-0.794,0.581
-0.280,-0.793,0.586
-0.278,-0.794,0.589
-0.278,-0.796,0.593
-0.279,-0.793,0.589
-0.280,-0.796,0.586
-0.280,-0.800,0.583
-0.282,-0.799,0.587
-0.280,-0.798,0.585
-0.280,-0.795,0.586
-0.279,-0.796,0.584
-0.281,-0.795,0.585
-0.280,-0.796,0.588
-0.283,-0.794,0.591
-0.284,-0.791,0.594
-0.285,-0.792,0.595
-0.282,-0.793,0.589
-0.281,-0.794,0.591
-0.283,-0.796,0.592
-0.284,-0.796,0.593
-0.283,-0.795,0.591
-0.278,-0.798,0.587
-0.277,-0.793,0.586
-0.280,-0.793,0.589
-0.280,-0.795,0.589
-0.280,-0.794,0.593
-0.280,-0.792,0.590
-0.283,-0.792,0.596
-0.285,-0.793,0.596
-0.281,-0.791,0.593
-0.277,-0.793,0.593
-0.280,-0.790,0.594
-0.281,-0.792,0.593
-0.279,-0.791,0.592
-0.279,-0.797,0.589
-0.281,-0.796,0.587
-0.278,-0.795,0.585
-0.276,-0.794,0.585
-0.281,-0.797,0.586
-0.280,-0.798,0.586
-0.281,-0.796,0.584
-0.279,-0.795,0.588
-0.280,-0.793,0.591
-0.284,-0.793,0.595
-0.286,-0.795,0.593
-0.283,-0.791,0.589
-0.282,-0.794,0.588
-0.285,-0.796,0.588
-0.281,-0.793,0.587
-0.279,-0.793,0.586
-0.278,-0.793,0.584
-0.280,-0.794,0.583
-0.285,-0.791,0.587
-0.286,-0.795,0.587
-0.285,-0.796,0.588
-0.284,-0.795,0.589
-0.286,-0.794,0.592
-0.283,-0.796,0.591
-0.278,-0.796,0.584
-0.279,-0.795,0.584
-0.283,-0.796,0.588
-0.282,-0.794,0.586
-0.280,-0.793,0.585
-0.283,-0.797,0.586
-0.284,-0.795,0.589
-0.282,-0.792,0.593
-0.282,-0.788,0.591
-0.285,-0.797,0.590
-0.286,-0.798,0.590
-0.281,-0.794,0.594
-0.285,-0.793,0.588
-0.283,-0.792,0.589
-0.280,-0.792,0.584
-0.282,-0.800,0.586
-0.282,-0.795,0.584
-0.277,-0.794,0.583
-0.279,-0.795,0.583
-0.283,-0.801,0.585
-0.284,-0.797,0.587
-0.283,-0.795,0.588
-0.282,-0.794,0.589
-0.286,-0.792,0.590
-0.284,-0.792,0.590
-0.283,-0.791,0.593
-0.285,-0.796,0.596
-0.284,-0.792,0.589
-0.283,-0.792,0.590
-0.283,-0.795,0.587
-0.280,-0.795,0.587
-0.281,-0.793,0.589
-0.281,-0.793,0.591
-0.283,-0.794,0.584
-0.283,-0.796,0.584
-0.281,-0.796,0.583
-0.282,-0.795,0.587
-0.282,-0.793,0.586
-0.283,-0.793,0.586
-0.284,-0.797,0.583
-0.284,-0.798,0.589
-0.285,-0.794,0.590
-0.283,-0.792,0.590
-0.281,-0.794,0.590
-0.284,-0.794,0.590
-0.283,-0.793,0.589
-0.284,-0.795,0.588
-0.282,-0.795,0.587
-0.280,-0.795,0.586
-0.281,-0.797,0.589
-0.282,-0.797,0.590
-0.283,-0.792,0.593
-0.281,-0.792,0.594
-0.283,-0.789,0.586
-0.281,-0.797,0.587
-0.283,-0.798,0.587
-0.283,-0.796,0.587
-0.284,-0.793,0.589
-0.283,-0.793,0.590
-0.286,-0.794,0.591
-0.286,-0.797,0.586
-0.284,-0.795,0.587
-0.286,-0.797,0.583
-0.283,-0.799,0.583
-0.283,-0.799,0.585
-0.279,-0.801,0.576
-0.284,-0.800,0.585
-0.287,-0.797,0.587
-0.285,-0.794,0.588
-0.286,-0.794,0.586
-0.282,-0.793,0.582
-0.282,-0.787,0.587
-0.283,-0.788,0.588
-0.283,-0.792,0.585
-0.284,-0.796,0.583
-0.282,-0.796,0.584
-0.286,-0.802,0.580
-0.285,-0.802,0.576
-0.286,-0.806,0.576
-0.284,-0.800,0.580
-0.282,-0.798,0.582
-0.285,-0.799,0.577
-0.283,-0.803,0.579
-0.284,-0.801,0.580
-0.281,-0.794,0.583
-0.284,-0.796,0.588
-0.284,-0.796,0.589
-0.284,-0.793,0.590
-0.283,-0.795,0.588
-0.283,-0.797,0.586
-0.284,-0.798,0.582
-0.280,-0.798,0.581
-0.279,-0.803,0.582
-0.278,-0.797,0.582
-0.282,-0.797,0.580
-0.281,-0.798,0.581
-0.280,-0.802,0.580
-0.283,-0.801,0.584
-0.285,-0.798,0.580
-0.285,-0.797,0.584
-0.285,-0.799,0.586
-0.285,-0.798,0.584
-0.282,-0.799,0.583
-0.280,-0.793,0.581
-0.281,-0.791,0.583
-0.285,-0.794,0.587
-0.284,-0.800,0.589
-0.287,-0.802,0.588
-0.281,-0.804,0.583
-0.277,-0.800,0.582
-0.280,-0.801,0.580
-0.286,-0.801,0.581
-0.284,-0.804,0.583
-0.282,-0.802,0.580
-0.282,-0.799,0.581
-0.280,-0.796,0.579
-0.281,-0.793,0.580
-0.282,-0.795,0.585
-0.284,-0.791,0.587
-0.284,-0.793,0.588
-0.286,-0.795,0.588
-0.288,-0.798,0.587
-0.290,-0.802,0.588
-0.283,-0.795,0.584
-0.283,-0.797,0.582
-0.284,-0.800,0.583
-0.285,-0.797,0.580
-0.281,-0.804,0.574
-0.283,-0.805,0.578
-0.283,-0.803,0.580
-0.283,-0.799,0.580
-0.284,-0.798,0.582
-0.284,-0.797,0.583
-0.286,-0.793,0.588
-0.287,-0.795,0.588
-0.286,-0.800,0.586
-0.287,-0.796,0.585
-0.284,-0.793,0.585
-0.285,-0.799,0.581
-0.284,-0.802,0.585
-0.285,-0.803,0.580
-0.280,-0.801,0.579
-0.278,-0.798,0.574
-0.277,-0.800,0.573
-0.276,-0.800,0.580
-0.278,-0.800,0.583
-0.281,-0.799,0.584
-0.285,-0.806,0.583
-0.289,-0.804,0.581
-0.287,-0.804,0.574
-0.284,-0.804,0.572
-0.284,-0.805,0.574
-0.287,-0.805,0.576
-0.283,-0.802,0.579
-0.282,-0.800,0.578
-0.281,-0.799,0.580
-0.285,-0.798,0.580
-0.284,-0.798,0.577
-0.281,-0.795,0.575
-0.278,-0.794,0.576
-0.282,-0.801,0.578
-0.283,-0.806,0.581
-0.286,-0.807,0.574
-0.285,-0.807,0.571
-0.285,-0.809,0.570
-0.285,-0.806,0.568
-0.285,-0.802,0.573
-0.285,-0.802,0.575
-0.286,-0.804,0.575
-0.285,-0.805,0.578
-0.288,-0.801,0.575
-0.291,-0.804,0.576
-0.284,-0.803,0.569
-0.282,-0.801,0.572
-0.286,-0.804,0.577
-0.284,-0.801,0.577
-0.281,-0.803,0.575
-0.285,-0.807,0.569
-0.283,-0.811,0.571
-0.284,-0.806,0.569
-0.282,-0.806,0.567
-0.286,-0.809,0.566
-0.289,-0.810,0.568
-0.286,-0.810,0.572
-0.288,-0.809,0.576
-0.289,-0.806,0.572
-0.287,-0.809,0.573
-0.285,-0.807,0.569
-0.285,-0.807,0.570
-0.278,-0.803,0.570
-0.281,-0.807,0.575
-0.284,-0.806,0.574
-0.284,-0.810,0.574
-0.287,-0.810,0.570
-0.287,-0.812,0.566
-0.286,-0.807,0.569
-0.285,-0.807,0.575
-0.286,-0.807,0.573
-0.285,-0.807,0.571
-0.287,-0.805,0.567
-0.280,-0.804,0.569
-0.276,-0.803,0.565
-0.275,-0.803,0.566
-0.276,-0.804,0.571
-0.282,-0.802,0.573
-0.286,-0.799,0.580
-0.288,-0.801,0.577
-0.287,-0.805,0.577
-0.288,-0.807,0.573
-0.288,-0.806,0.572
-0.284,-0.807,0.569
-0.284,-0.810,0.571
-0.284,-0.810,0.574
-0.283,-0.805,0.573
-0.284,-0.803,0.574
-0.288,-0.804,0.574
-0.287,-0.804,0.578
-0.287,-0.803,0.578
-0.286,-0.806,0.579
-0.282,-0.803,0.575
-0.281,-0.801,0.577
-0.284,-0.803,0.578
-0.282,-0.804,0.571
-0.280,-0.814,0.564
-0.281,-0.810,0.568
-0.282,-0.807,0.569
-0.286,-0.809,0.570
-0.284,-0.808,0.566
-0.282,-0.812,0.566
-0.286,-0.806,0.570
-0.286,-0.807,0.573
-0.287,-0.802,0.576
-0.291,-0.805,0.572
-0.291,-0.804,0.574
-0.289,-0.807,0.571
-0.287,-0.811,0.570
-0.288,-0.806,0.569
-0.288,-0.804,0.569
-0.287,-0.806,0.568
-0.285,-0.806,0.569
-0.285,-0.806,0.570
-0.287,-0.808,0.571
-0.289,-0.805,0.569
-0.286,-0.803,0.572
-0.287,-0.805,0.573
-0.286,-0.804,0.573
-0.285,-0.805,0.571
-0.282,-0.808,0.569
-0.287,-0.806,0.567
-0.287,-0.804,0.571
-0.286,-0.807,0.574
-0.287,-0.805,0.572
-0.285,-0.806,0.573
-0.287,-0.809,0.573
-0.287,-0.805,0.576
-0.285,-0.799,0.573
-0.285,-0.804,0.574
-0.286,-0.804,0.574
-0.283,-0.804,0.573
-0.284,-0.799,0.574
-0.286,-0.803,0.573
-0.288,-0.797,0.578
-0.284,-0.796,0.575
-0.285,-0.799,0.574
-0.291,-0.806,0.580
-0.292,-0.805,0.579
-0.291,-0.801,0.580
-0.290,-0.801,0.573
-0.284,-0.805,0.572
-0.288,-0.807,0.573
-0.286,-0.806,0.570
-0.282,-0.799,0.576
-0.284,-0.798,0.577
-0.288,-0.802,0.580
-0.287,-0.799,0.581
-0.286,-0.795,0.578
-0.288,-0.795,0.579
-0.289,-0.798,0.587
-0.288,-0.797,0.585
-0.286,-0.801,0.586
-0.289,-0.804,0.580
-0.288,-0.804,0.577
-0.285,-0.808,0.575
-0.282,-0.803,0.575
-0.284,-0.802,0.578
-0.284,-0.800,0.574
-0.282,-0.803,0.578
-0.280,-0.801,0.578
-0.284,-0.798,0.579
-0.285,-0.793,0.586
-0.282,-0.793,0.582
-0.282,-0.795,0.581
-0.282,-0.798,0.586
-0.280,-0.800,0.586
-0.284,-0.798,0.591
-0.284,-0.795,0.586
-0.284,-0.798,0.583
-0.282,-0.801,0.583
-0.283,-0.797,0.578
-0.283,-0.798,0.582
-0.280,-0.796,0.581
-0.284,-0.798,0.582
-0.284,-0.799,0.581
-0.287,-0.799,0.582
-0.284,-0.799,0.581
-0.289,-0.802,0.580
-0.291,-0.798,0.585
-0.290,-0.796,0.585
-0.292,-0.796,0.584
-0.294,-0.802,0.571
-0.292,-0.807,0.571
-0.289,-0.807,0.570
-0.292,-0.807,0.566
-0.289,-0.803,0.569
-0.289,-0.802,0.572
-0.292,-0.803,0.581
-0.292,-0.796,0.583
-0.289,-0.797,0.587
-0.291,-0.793,0.585
-0.287,-0.791,0.583
-0.284,-0.797,0.578
-0.284,-0.796,0.575
-0.285,-0.799,0.580
-0.287,-0.803,0.578
-0.283,-0.807,0.572
-0.284,-0.803,0.579
-0.285,-0.799,0.582
-0.292,-0.800,0.589
-0.287,-0.794,0.585
-0.287,-0.796,0.580
-0.284,-0.798,0.582
-0.284,-0.794,0.585
-0.285,-0.796,0.586
-0.283,-0.796,0.585
-0.285,-0.793,0.584
-0.290,-0.798,0.590
-0.284,-0.794,0.573
-0.281,-0.795,0.573
-0.284,-0.794,0.578
-0.285,-0.789,0.580
-0.289,-0.792,0.582
-0.290,-0.796,0.585
-0.297,-0.798,0.588
-0.296,-0.799,0.589
-0.296,-0.799,0.580
-0.289,-0.796,0.578
-0.290,-0.797,0.576
-0.290,-0.796,0.576
-0.289,-0.795,0.583
-0.291,-0.798,0.586
-0.294,-0.795,0.581
-0.292,-0.796,0.584
-0.295,-0.794,0.588
-0.294,-0.793,0.590
-0.290,-0.793,0.588
-0.289,-0.793,0.586
-0.289,-0.791,0.585
-0.287,-0.797,0.578
-0.285,-0.801,0.578
-0.284,-0.799,0.575
-0.284,-0.798,0.579
-0.286,-0.798,0.582
-0.287,-0.799,0.585
-0.289,-0.796,0.585
-0.290,-0.793,0.585
-0.293,-0.789,0.585
-0.291,-0.794,0.588
-0.291,-0.791,0.589
-0.290,-0.791,0.592
-0.290,-0.786,0.597
-0.296,-0.785,0.595
-0.296,-0.785,0.597
-0.293,-0.786,0.594
-0.289,-0.789,0.592
-0.291,-0.795,0.588
-0.285,-0.794,0.577
-0.283,-0.795,0.578
-0.288,-0.798,0.582
-0.292,-0.805,0.579
-0.290,-0.804,0.573
-0.290,-0.809,0.571
-0.295,-0.804,0.574
-0.295,-0.803,0.577
-0.293,-0.802,0.578
-0.292,-0.807,0.581
-0.295,-0.810,0.582
-0.295,-0.804,0.579
-0.283,-0.787,0.575
-0.282,-0.785,0.579
-0.293,-0.789,0.584
-0.291,-0.791,0.580
-0.289,-0.796,0.574
-0.291,-0.793,0.581
-0.290,-0.796,0.583
-0.289,-0.794,0.583
-0.287,-0.790,0.580
-0.297,-0.789,0.582
-0.301,-0.793,0.585
-0.301,-0.790,0.587
-0.302,-0.797,0.584
-0.303,-0.800,0.583
-0.302,-0.804,0.578
-0.298,-0.804,0.573
-0.294,-0.807,0.570
-0.290,-0.805,0.569
-0.290,-0.806,0.572
-0.289,-0.799,0.569
-0.289,-0.798,0.571
-0.292,-0.798,0.576
-0.294,-0.798,0.578
-0.294,-0.794,0.578
-0.292,-0.794,0.577
-0.293,-0.795,0.577
-0.289,-0.799,0.573
-0.289,-0.801,0.571
-0.288,-0.801,0.571
-0.291,-0.804,0.576
-0.293,-0.801,0.574
-0.294,-0.797,0.577
-0.298,-0.800,0.575
-0.301,-0.808,0.576
-0.302,-0.807,0.577
-0.299,-0.803,0.573
-0.297,-0.804,0.567
-0.297,-0.806,0.563
-0.295,-0.811,0.564
-0.291,-0.810,0.563
-0.291,-0.809,0.562
-0.291,-0.805,0.566
-0.295,-0.800,0.572
-0.299,-0.801,0.574
-0.300,-0.801,0.583
-0.298,-0.801,0.578
-0.296,-0.799,0.578
-0.296,-0.796,0.575
-0.291,-0.793,0.575
-0.294,-0.799,0.574
-0.290,-0.801,0.572
-0.287,-0.805,0.569
-0.290,-0.809,0.566
-0.291,-0.812,0.566
-0.294,-0.813,0.567
-0.291,-0.811,0.566
-0.290,-0.809,0.565
-0.289,-0.809,0.569
-0.295,-0.807,0.574
-0.295,-0.803,0.573
-0.294,-0.799,0.569
-0.294,-0.800,0.568
-0.297,-0.803,0.571
-0.291,-0.797,0.575
-0.292,-0.798,0.575
-0.296,-0.799,0.577
-0.299,-0.801,0.576
-0.299,-0.801,0.578
-0.294,-0.805,0.570
-0.294,-0.804,0.569
-0.295,-0.806,0.569
-0.297,-0.806,0.570
-0.292,-0.804,0.567
-0.293,-0.805,0.562
-0.296,-0.810,0.563
-0.295,-0.809,0.562
-0.296,-0.806,0.563
-0.294,-0.805,0.561
-0.291,-0.807,0.569
-0.296,-0.809,0.566
-0.293,-0.807,0.564
-0.295,-0.808,0.565
-0.297,-0.803,0.567
-0.294,-0.804,0.569
-0.297,-0.802,0.571
-0.297,-0.803,0.568
-0.296,-0.805,0.564
-0.294,-0.805,0.563
-0.297,-0.804,0.570
-0.291,-0.805,0.568
-0.291,-0.805,0.568
-0.294,-0.808,0.567
-0.294,-0.810,0.565
-0.296,-0.812,0.561
-0.293,-0.813,0.558
-0.290,-0.811,0.555
-0.290,-0.809,0.557
-0.292,-0.808,0.562
-0.290,-0.806,0.564
-0.293,-0.802,0.567
-0.296,-0.799,0.575
-0.301,-0.800,0.583
-0.301,-0.794,0.586
-0.302,-0.793,0.590
-0.295,-0.792,0.583
-0.294,-0.796,0.580
-0.293,-0.797,0.569
-0.285,-0.804,0.557
-0.283,-0.808,0.552
-0.281,-0.816,0.544
-0.284,-0.822,0.546
-0.285,-0.820,0.546
-0.289,-0.819,0.547
-0.295,-0.826,0.551
-0.301,-0.824,0.555
-0.302,-0.814,0.559
-0.306,-0.805,0.572
-0.305,-0.803,0.573
-0.304,-0.795,0.578
-0.295,-0.787,0.584
-0.292,-0.786,0.587
-0.297,-0.790,0.601
-0.305,-0.784,0.602
-0.298,-0.781,0.599
-0.297,-0.783,0.590
-0.298,-0.787,0.588
-0.298,-0.788,0.585
-0.294,-0.790,0.574
-0.295,-0.810,0.563
-0.297,-0.815,0.558
-0.293,-0.818,0.552
-0.294,-0.820,0.550
-0.296,-0.819,0.548
-0.292,-0.815,0.558
-0.295,-0.807,0.569
-0.298,-0.805,0.577
-0.299,-0.803,0.581
-0.300,-0.794,0.583
-0.298,-0.793,0.584
-0.295,-0.789,0.580
-0.290,-0.793,0.577
-0.291,-0.800,0.578
-0.289,-0.811,0.571
-0.282,-0.810,0.560
-0.282,-0.812,0.558
-0.284,-0.809,0.554
-0.287,-0.810,0.558
-0.289,-0.813,0.562
-0.296,-0.810,0.569
-0.297,-0.801,0.582
-0.298,-0.798,0.588
-0.302,-0.794,0.586
-0.302,-0.794,0.582
-0.298,-0.797,0.581
-0.294,-0.798,0.572
-0.293,-0.791,0.569
-0.292,-0.797,0.569
-0.292,-0.803,0.573
-0.293,-0.805,0.571
-0.291,-0.807,0.574
-0.295,-0.802,0.578
-0.300,-0.795,0.585
-0.300,-0.793,0.585
-0.301,-0.798,0.581
-0.295,-0.796,0.574
-0.294,-0.802,0.574
-0.293,-0.805,0.573
-0.291,-0.801,0.571
-0.291,-0.803,0.570
-0.293,-0.801,0.571
-0.292,-0.797,0.568
-0.292,-0.798,0.570
-0.290,-0.800,0.572
-0.293,-0.797,0.572
-0.294,-0.798,0.571
-0.297,-0.805,0.573
-0.299,-0.804,0.572
-0.299,-0.802,0.576
-0.297,-0.803,0.571
-0.297,-0.803,0.566
-0.296,-0.804,0.568
-0.297,-0.804,0.569
-0.293,-0.802,0.568
-0.290,-0.800,0.568
-0.293,-0.805,0.572
-0.299,-0.807,0.578
-0.297,-0.799,0.579
-0.295,-0.795,0.573
-0.300,-0.799,0.570
-0.296,-0.799,0.573
-0.297,-0.798,0.572
-0.295,-0.803,0.566
-0.295,-0.800,0.565
-0.295,-0.804,0.567
-0.298,-0.803,0.570
-0.300,-0.804,0.567
-0.300,-0.806,0.565
-0.299,-0.806,0.570
-0.300,-0.801,0.572
-0.300,-0.797,0.574
-0.301,-0.800,0.574
-0.303,-0.802,0.571
-0.298,-0.799,0.569
-0.298,-0.804,0.578
-0.298,-0.800,0.574
-0.296,-0.801,0.575
-0.296,-0.804,0.573
-0.296,-0.804,0.571
-0.297,-0.796,0.572
-0.296,-0.795,0.577
-0.296,-0.800,0.579
-0.299,-0.802,0.578
-0.297,-0.805,0.571
-0.294,-0.808,0.572
-0.296,-0.803,0.569
-0.293,-0.798,0.575
-0.294,-0.800,0.575
-0.295,-0.802,0.567
-0.292,-0.803,0.565
-0.292,-0.803,0.564
-0.292,-0.801,0.569
-0.292,-0.798,0.575
-0.294,-0.798,0.570
-0.300,-0.802,0.573
-0.300,-0.805,0.572
-0.299,-0.800,0.575
-0.298,-0.800,0.578
-0.300,-0.796,0.583
-0.299,-0.794,0.582
-0.299,-0.797,0.580
-0.299,-0.798,0.578
-0.296,-0.797,0.577
-0.295,-0.796,0.571
-0.295,-0.800,0.576
-0.294,-0.797,0.576
-0.296,-0.801,0.572
-0.294,-0.807,0.569
-0.292,-0.802,0.568
-0.294,-0.800,0.571
-0.295,-0.798,0.574
-0.298,-0.795,0.580
-0.303,-0.797,0.582
-0.301,-0.798,0.584
-0.300,-0.799,0.585
-0.299,-0.796,0.582
-0.297,-0.792,0.581
-0.298,-0.794,0.579
-0.296,-0.794,0.581
-0.296,-0.796,0.581
-0.296,-0.793,0.578
-0.293,-0.792,0.579
-0.296,-0.797,0.580
-0.295,-0.798,0.577
-0.292,-0.797,0.577
-0.293,-0.796,0.578
-0.297,-0.798,0.580
-0.294,-0.797,0.578
-0.293,-0.795,0.576
-0.298,-0.792,0.577
-0.299,-0.796,0.581
-0.301,-0.799,0.582
-0.300,-0.798,0.578
-0.300,-0.800,0.578
-0.297,-0.793,0.576
-0.297,-0.794,0.576
-0.298,-0.795,0.575
-0.294,-0.804,0.573
-0.296,-0.804,0.574
-0.294,-0.800,0.569
-0.294,-0.804,0.569
-0.294,-0.803,0.572
-0.296,-0.801,0.575
-0.302,-0.795,0.577
-0.299,-0.797,0.575
-0.298,-0.798,0.577
-0.300,-0.795,0.578
-0.300,-0.798,0.577
-0.301,-0.795,0.581
-0.301,-0.800,0.575
-0.298,-0.802,0.574
-0.298,-0.800,0.573
-0.295,-0.799,0.569
-0.300,-0.801,0.573
-0.297,-0.797,0.577
-0.298,-0.800,0.576
-0.300,-0.800,0.577
-0.294,-0.797,0.573
-0.295,-0.799,0.571
-0.300,-0.800,0.576
-0.299,-0.800,0.572
-0.297,-0.801,0.572
-0.295,-0.799,0.570
-0.298,-0.800,0.575
-0.298,-0.799,0.573
-0.298,-0.804,0.571
-0.297,-0.802,0.574
-0.295,-0.796,0.574
-0.301,-0.798,0.576
-0.298,-0.799,0.575
-0.297,-0.799,0.575
-0.300,-0.800,0.576
-0.297,-0.794,0.573
-0.295,-0.796,0.569
-0.295,-0.802,0.573
-0.297,-0.801,0.572
-0.297,-0.800,0.571
-0.301,-0.798,0.573
-0.299,-0.801,0.578
-0.300,-0.798,0.578
-0.298,-0.801,0.579
-0.301,-0.809,0.574
-0.300,-0.807,0.575
-0.296,-0.802,0.571
-0.297,-0.800,0.572
-0.295,-0.798,0.569
-0.296,-0.803,0.567
-0.295,-0.803,0.568
-0.293,-0.803,0.569
-0.294,-0.796,0.572
-0.296,-0.795,0.577
-0.299,-0.797,0.579
-0.301,-0.797,0.575
-0.302,-0.803,0.577
-0.299,-0.799,0.575
-0.297,-0.798,0.575
-0.299,-0.799,0.572
-0.300,-0.803,0.571
-0.300,-0.802,0.570
-0.297,-0.800,0.565
-0.295,-0.799,0.568
-0.300,-0.802,0.571
-0.301,-0.800,0.575
-0.301,-0.803,0.573
-0.301,-0.802,0.570
-0.299,-0.799,0.573
-0.298,-0.796,0.571
-0.300,-0.798,0.576
-0.299,-0.800,0.575
-0.298,-0.801,0.579
-0.300,-0.801,0.575
-0.299,-0.801,0.569
-0.298,-0.800,0.569
-0.300,-0.801,0.572
-0.300,-0.800,0.569
-0.301,-0.799,0.568
-0.298,-0.805,0.569
-0.298,-0.800,0.564
-0.300,-0.802,0.568
-0.299,-0.804,0.567
-0.300,-0.803,0.566
-0.296,-0.801,0.568
-0.298,-0.799,0.572
-0.300,-0.797,0.575
-0.298,-0.797,0.578
-0.305,-0.807,0.573
-0.300,-0.804,0.573
-0.299,-0.806,0.570
-0.298,-0.800,0.569
-0.297,-0.798,0.569
-0.298,-0.799,0.569
-0.295,-0.802,0.569
-0.297,-0.802,0.570
-0.300,-0.804,0.569
-0.301,-0.805,0.568
-0.302,-0.805,0.568
-0.302,-0.803,0.569
-0.299,-0.802,0.569
-0.302,-0.803,0.573
-0.301,-0.805,0.574
-0.297,-0.804,0.566
-0.297,-0.802,0.567
-0.300,-0.802,0.565
-0.299,-0.806,0.566
-0.294,-0.807,0.568
-0.298,-0.805,0.571
-0.299,-0.802,0.566
-0.296,-0.802,0.565
-0.297,-0.804,0.564
-0.299,-0.806,0.567
-0.296,-0.804,0.570
-0.298,-0.799,0.570
-0.295,-0.803,0.565
-0.299,-0.806,0.570
-0.297,-0.805,0.570
-0.298,-0.799,0.567
-0.295,-0.802,0.565
-0.295,-0.805,0.568
-0.300,-0.807,0.573
-0.303,-0.804,0.566
-0.301,-0.807,0.564
-0.300,-0.806,0.559
-0.297,-0.806,0.564
-0.300,-0.803,0.565
-0.297,-0.798,0.569
-0.301,-0.802,0.572
-0.303,-0.805,0.569
-0.302,-0.802,0.573
-0.299,-0.799,0.572
-0.303,-0.796,0.569
-0.299,-0.803,0.569
-0.300,-0.805,0.570
-0.296,-0.803,0.571
-0.296,-0.804,0.570
-0.297,-0.803,0.567
-0.296,-0.803,0.567
-0.300,-0.802,0.569
-0.297,-0.801,0.566
-0.298,-0.802,0.568
-0.298,-0.806,0.568
-0.295,-0.805,0.572
-0.298,-0.803,0.569
-0.295,-0.801,0.570
-0.300,-0.799,0.567
-0.298,-0.804,0.570
-0.297,-0.805,0.572
-0.299,-0.804,0.570
-0.297,-0.804,0.569
-0.298,-0.802,0.570
-0.298,-0.800,0.568
-0.298,-0.801,0.571
-0.297,-0.801,0.569
-0.299,-0.804,0.568
-0.297,-0.803,0.568
-0.298,-0.803,0.567
-0.300,-0.804,0.576
-0.300,-0.801,0.574
-0.300,-0.795,0.572
-0.298,-0.804,0.565
-0.297,-0.804,0.569
-0.296,-0.804,0.572
-0.299,-0.808,0.566
-0.299,-0.807,0.563
-0.297,-0.808,0.558
-0.299,-0.809,0.557
-0.299,-0.811,0.556
-0.298,-0.805,0.561
-0.301,-0.803,0.564
-0.302,-0.807,0.568
-0.301,-0.806,0.568
-0.301,-0.805,0.565
-0.297,-0.808,0.564
-0.296,-0.809,0.561
-0.296,-0.805,0.561
-0.296,-0.804,0.567
-0.299,-0.808,0.565
-0.300,-0.809,0.568
-0.299,-0.814,0.563
-0.293,-0.810,0.556
-0.297,-0.807,0.561
-0.294,-0.801,0.564
-0.294,-0.803,0.564
-0.293,-0.804,0.566
-0.296,-0.803,0.566
-0.301,-0.800,0.570
-0.299,-0.806,0.565
-0.304,-0.806,0.569
-0.301,-0.808,0.564
-0.301,-0.808,0.565
-0.297,-0.809,0.562
-0.298,-0.804,0.567
-0.301,-0.804,0.566
-0.298,-0.808,0.563
-0.295,-0.806,0.560
-0.294,-0.809,0.557
-0.294,-0.808,0.556
-0.296,-0.811,0.563
-0.296,-0.808,0.565
-0.296,-0.804,0.562
-0.299,-0.805,0.559
-0.301,-0.811,0.560
-0.307,-0.814,0.563
-0.303,-0.808,0.564
-0.302,-0.806,0.564
-0.300,-0.808,0.559
-0.299,-0.810,0.560
-0.297,-0.809,0.558
-0.297,-0.804,0.562
-0.298,-0.803,0.568
-0.300,-0.800,0.566
-0.298,-0.803,0.568
-0.303,-0.801,0.570
-0.302,-0.800,0.570
-0.302,-0.803,0.574
-0.301,-0.803,0.575
-0.301,-0.806,0.572
-0.301,-0.806,0.565
-0.295,-0.809,0.557
-0.296,-0.807,0.558
-0.296,-0.803,0.562
-0.298,-0.804,0.565
-0.299,-0.805,0.564
-0.299,-0.806,0.563
-0.295,-0.805,0.567
-0.298,-0.802,0.567
-0.301,-0.798,0.568
-0.303,-0.801,0.569
-0.301,-0.802,0.569
-0.301,-0.808,0.567
-0.300,-0.806,0.562
-0.303,-0.807,0.563
-0.300,-0.804,0.561
-0.299,-0.806,0.560
-0.300,-0.810,0.559
-0.303,-0.811,0.564
-0.299,-0.807,0.566
-0.300,-0.805,0.566
-0.302,-0.804,0.569
-0.301,-0.799,0.569
-0.302,-0.800,0.565
-0.301,-0.808,0.565
-0.299,-0.804,0.567
-0.300,-0.798,0.564
-0.300,-0.800,0.561
-0.301,-0.803,0.558
-0.304,-0.808,0.558
-0.305,-0.808,0.559
-0.308,-0.807,0.561
-0.303,-0.801,0.561
-0.306,-0.809,0.566
-0.310,-0.809,0.570
-0.310,-0.810,0.566
-0.303,-0.806,0.560
-0.301,-0.807,0.561
-0.302,-0.800,0.563
-0.298,-0.797,0.568
-0.296,-0.799,0.563
-0.301,-0.800,0.564
-0.301,-0.805,0.571
-0.304,-0.802,0.569
-0.299,-0.801,0.570
-0.300,-0.804,0.569
-0.302,-0.806,0.569
-0.300,-0.807,0.564
-0.299,-0.811,0.560
-0.297,-0.810,0.560
-0.294,-0.809,0.562
-0.298,-0.804,0.566
-0.303,-0.799,0.569
-0.301,-0.803,0.569
-0.304,-0.805,0.571
-0.303,-0.804,0.569
-0.299,-0.797,0.569
-0.299,-0.798,0.573
-0.301,-0.798,0.573
-0.301,-0.801,0.573
-0.301,-0.801,0.569
-0.299,-0.801,0.565
-0.299,-0.802,0.568
-0.305,-0.803,0.569
-0.300,-0.803,0.566
-0.301,-0.804,0.565
-0.299,-0.803,0.560
-0.303,-0.804,0.565
-0.303,-0.806,0.563
-0.302,-0.801,0.567
-0.303,-0.798,0.572
-0.307,-0.807,0.567
-0.306,-0.805,0.563
-0.304,-0.802,0.569
-0.304,-0.804,0.569
-0.306,-0.805,0.569
-0.305,-0.803,0.565
-0.304,-0.800,0.564
-0.304,-0.803,0.565
-0.305,-0.804,0.566
-0.305,-0.805,0.563
-0.305,-0.808,0.564
-0.305,-0.806,0.565
-0.304,-0.810,0.560
-0.301,-0.809,0.560
-0.299,-0.807,0.556
-0.300,-0.804,0.558
-0.300,-0.803,0.557
-0.300,-0.802,0.568
-0.300,-0.804,0.574
-0.303,-0.803,0.572
-0.304,-0.801,0.575
-0.308,-0.799,0.575
-0.309,-0.803,0.578
-0.311,-0.798,0.574
-0.303,-0.798,0.569
-0.304,-0.799,0.567
-0.301,-0.806,0.564
-0.297,-0.800,0.560
-0.295,-0.796,0.558
-0.299,-0.802,0.564
-0.303,-0.807,0.567
-0.305,-0.804,0.567
-0.305,-0.800,0.569
-0.303,-0.799,0.570
-0.302,-0.800,0.572
-0.303,-0.799,0.567
-0.300,-0.797,0.569
-0.302,-0.800,0.568
-0.305,-0.803,0.562
-0.303,-0.811,0.558
-0.303,-0.811,0.561
-0.305,-0.810,0.565
-0.302,-0.813,0.564
-0.305,-0.805,0.559
-0.302,-0.808,0.562
-0.302,-0.808,0.565
-0.295,-0.801,0.554
-0.293,-0.796,0.556
-0.293,-0.804,0.566
-0.295,-0.804,0.565
-0.295,-0.806,0.563
-0.299,-0.807,0.567
-0.304,-0.810,0.569
-0.307,-0.810,0.569
-0.302,-0.803,0.568
-0.296,-0.795,0.569
-0.300,-0.796,0.568
-0.305,-0.796,0.569
-0.302,-0.803,0.570
-0.304,-0.811,0.566
-0.300,-0.811,0.563
-0.298,-0.806,0.564
-0.302,-0.804,0.563
-0.297,-0.806,0.562
-0.298,-0.807,0.561
-0.300,-0.806,0.563
-0.303,-0.808,0.569
-0.300,-0.810,0.565
-0.300,-0.810,0.564
-0.295,-0.811,0.562
-0.296,-0.802,0.565
-0.296,-0.798,0.568
-0.298,-0.802,0.571
-0.300,-0.806,0.569
-0.301,-0.808,0.569
-0.299,-0.808,0.570
-0.298,-0.803,0.561
-0.297,-0.806,0.562
-0.298,-0.805,0.562
-0.295,-0.806,0.560
-0.295,-0.806,0.557
-0.295,-0.809,0.556
-0.301,-0.808,0.565
-0.306,-0.810,0.566
-0.304,-0.810,0.560
-0.305,-0.812,0.554
-0.304,-0.813,0.556
-0.302,-0.811,0.554
-0.296,-0.808,0.549
-0.295,-0.810,0.552
-0.297,-0.811,0.553
-0.301,-0.811,0.555
-0.301,-0.808,0.558
-0.303,-0.808,0.557
-0.305,-0.809,0.558
-0.305,-0.811,0.557
-0.303,-0.813,0.555
-0.300,-0.814,0.552
-0.301,-0.814,0.554
-0.300,-0.812,0.556
-0.304,-0.810,0.551
-0.304,-0.814,0.550
-0.303,-0.807,0.554
-0.301,-0.808,0.553
-0.303,-0.807,0.557
-0.300,-0.808,0.557
-0.303,-0.809,0.558
-0.300,-0.808,0.562
-0.305,-0.810,0.562
-0.303,-0.809,0.561
-0.305,-0.807,0.560
-0.303,-0.809,0.562
-0.303,-0.809,0.562
-0.299,-0.809,0.560
-0.298,-0.808,0.558
-0.301,-0.807,0.559
-0.301,-0.806,0.553
-0.303,-0.808,0.558
-0.303,-0.813,0.561
-0.301,-0.813,0.559
-0.299,-0.813,0.554
-0.299,-0.813,0.553
-0.300,-0.810,0.558
-0.298,-0.809,0.557
-0.299,-0.807,0.557
-0.303,-0.805,0.562
-0.303,-0.808,0.560
-0.304,-0.808,0.560
-0.302,-0.809,0.559
-0.303,-0.812,0.559
-0.303,-0.813,0.557
-0.300,-0.818,0.551
-0.299,-0.816,0.551
-0.295,-0.815,0.550
-0.299,-0.814,0.555
-0.302,-0.807,0.557
-0.299,-0.803,0.554
-0.300,-0.807,0.558
-0.301,-0.811,0.564
-0.302,-0.807,0.565
-0.302,-0.809,0.560
-0.301,-0.810,0.555
-0.302,-0.813,0.550
-0.300,-0.815,0.548
-0.299,-0.813,0.553
-0.302,-0.814,0.554
-0.301,-0.813,0.552
-0.303,-0.813,0.553
-0.302,-0.810,0.553
-0.303,-0.807,0.557
-0.305,-0.804,0.558
-0.301,-0.808,0.559
-0.304,-0.805,0.562
-0.305,-0.806,0.566
-0.307,-0.807,0.566
-0.306,-0.807,0.563
-0.304,-0.808,0.559
-0.299,-0.808,0.559
-0.302,-0.807,0.561
-0.302,-0.810,0.557
-0.300,-0.811,0.558
-0.297,-0.810,0.557
-0.299,-0.810,0.558
-0.299,-0.809,0.557
-0.300,-0.808,0.558
-0.300,-0.807,0.559
-0.300,-0.808,0.559
-0.303,-0.806,0.562
-0.303,-0.804,0.563
-0.304,-0.807,0.563
-0.307,-0.805,0.565
-0.306,-0.809,0.563
-0.305,-0.807,0.561
-0.303,-0.804,0.560
-0.304,-0.804,0.564
-0.303,-0.799,0.564
-0.303,-0.802,0.560
-0.305,-0.812,0.563
-0.304,-0.811,0.563
-0.302,-0.802,0.564
-0.304,-0.796,0.562
-0.305,-0.803,0.566
-0.305,-0.810,0.564
-0.303,-0.807,0.565
-0.304,-0.805,0.563
-0.304,-0.803,0.565
-0.302,-0.805,0.564
-0.302,-0.804,0.564
-0.300,-0.805,0.566
-0.302,-0.808,0.565
-0.301,-0.805,0.562
-0.303,-0.808,0.564
-0.303,-0.808,0.566
-0.304,-0.805,0.566
-0.300,-0.806,0.566
-0.302,-0.807,0.564
-0.302,-0.805,0.567
-0.301,-0.804,0.561
-0.304,-0.805,0.565
-0.306,-0.805,0.565
-0.305,-0.807,0.566
-0.303,-0.804,0.564
-0.303,-0.803,0.566
-0.303,-0.801,0.564
-0.302,-0.805,0.562
-0.304,-0.804,0.564
-0.306,-0.804,0.564
-0.305,-0.805,0.562
-0.303,-0.808,0.561
-0.306,-0.808,0.556
-0.305,-0.808,0.557
-0.308,-0.808,0.557
-0.307,-0.809,0.556
-0.305,-0.802,0.562
-0.305,-0.801,0.564
-0.306,-0.799,0.563
-0.307,-0.806,0.565
-0.309,-0.802,0.566
-0.310,-0.803,0.562
-0.307,-0.805,0.560
-0.305,-0.807,0.559
-0.303,-0.804,0.564
-0.302,-0.801,0.562
-0.304,-0.798,0.561
-0.305,-0.808,0.563
-0.309,-0.808,0.563
-0.307,-0.804,0.565
-0.303,-0.803,0.563
-0.304,-0.805,0.562
-0.303,-0.803,0.560
-0.302,-0.802,0.565
-0.305,-0.799,0.569
-0.304,-0.799,0.569
-0.304,-0.800,0.571
-0.306,-0.801,0.568
-0.308,-0.798,0.568
-0.306,-0.798,0.569
-0.306,-0.797,0.571
-0.308,-0.798,0.570
-0.305,-0.802,0.565
-0.305,-0.803,0.562
-0.308,-0.806,0.559
-0.311,-0.803,0.563
-0.307,-0.800,0.567
-0.307,-0.799,0.564
-0.309,-0.803,0.568
-0.311,-0.803,0.569
-0.312,-0.805,0.573
-0.310,-0.803,0.567
-0.306,-0.801,0.563
-0.305,-0.796,0.565
-0.307,-0.794,0.568
-0.309,-0.801,0.573
-0.309,-0.802,0.571
-0.305,-0.804,0.569
-0.305,-0.796,0.570
-0.309,-0.793,0.569
-0.309,-0.800,0.572
-0.308,-0.800,0.572
-0.305,-0.799,0.569
-0.306,-0.798,0.569
-0.304,-0.798,0.568
-0.302,-0.793,0.569
-0.305,-0.802,0.572
-0.307,-0.803,0.570
-0.306,-0.800,0.568
-0.306,-0.800,0.568
-0.305,-0.799,0.570
-0.303,-0.801,0.569
-0.302,-0.801,0.563
-0.304,-0.805,0.565
-0.305,-0.803,0.563
-0.302,-0.801,0.562
-0.310,-0.802,0.569
-0.310,-0.799,0.569
-0.310,-0.802,0.569
-0.308,-0.800,0.563
-0.308,-0.799,0.562
-0.307,-0.798,0.564
-0.308,-0.799,0.564
-0.305,-0.799,0.562
-0.306,-0.800,0.559
-0.305,-0.803,0.560
-0.312,-0.799,0.565
-0.312,-0.803,0.569
-0.313,-0.808,0.572
-0.315,-0.813,0.566
-0.312,-0.813,0.562
-0.312,-0.809,0.555
-0.310,-0.801,0.561
-0.308,-0.802,0.563
-0.304,-0.802,0.561
-0.304,-0.804,0.556
-0.306,-0.805,0.560
-0.306,-0.804,0.563
-0.308,-0.799,0.568
-0.308,-0.796,0.569
-0.307,-0.799,0.566
-0.309,-0.803,0.564
-0.307,-0.803,0.560
-0.310,-0.801,0.564
-0.306,-0.797,0.562
-0.303,-0.797,0.559
-0.304,-0.808,0.557
-0.306,-0.810,0.564
-0.305,-0.806,0.558
