aX,aY,aZ
-0.925,0.041,-0.384
-0.924,0.041,-0.377
-0.923,0.039,-0.374
-0.923,0.041,-0.376
-0.923,0.040,-0.379
-0.921,0.036,-0.374
-0.918,0.032,-0.369
-0.917,0.030,-0.367
-0.913,0.030,-0.371
-0.915,0.034,-0.381
-0.915,0.031,-0.387
-0.913,0.031,-0.388
-0.912,0.031,-0.387
-0.915,0.033,-0.391
-0.916,0.037,-0.383
-0.923,0.040,-0.382
-0.923,0.042,-0.382
-0.928,0.048,-0.378
-0.936,0.053,-0.381
-0.930,0.046,-0.392
-0.930,0.036,-0.396
-0.926,0.027,-0.394
-0.924,0.025,-0.385
-0.922,0.030,-0.370
-0.928,0.046,-0.360
-0.924,0.044,-0.362
-0.915,0.046,-0.379
-0.935,0.050,-0.413
-0.956,0.074,-0.435
-0.975,0.099,-0.476
-0.937,0.120,-0.527
-0.926,0.108,-0.558
-0.910,0.070,-0.556
-0.894,0.040,-0.553
-0.878,0.039,-0.565
-0.868,0.041,-0.568
-0.867,0.050,-0.568
-0.889,0.082,-0.544
-0.891,0.125,-0.518
-0.861,0.106,-0.522
-0.788,0.032,-0.524
-0.789,0.003,-0.522
-0.798,0.038,-0.562
-0.858,0.053,-0.602
-0.941,0.076,-0.572
-0.886,0.075,-0.508
-0.918,0.078,-0.511
-0.890,0.035,-0.553
-0.833,-0.087,-0.616
-0.777,-0.107,-0.644
-0.774,-0.067,-0.576
-0.794,-0.033,-0.555
-0.795,-0.025,-0.487
-0.778,-0.073,-0.457
-0.748,-0.082,-0.507
-0.722,-0.109,-0.550
-0.719,-0.098,-0.576
-0.722,-0.079,-0.581
-0.739,-0.029,-0.573
-0.747,-0.035,-0.545
-0.746,-0.018,-0.539
-0.739,0.004,-0.586
-0.731,-0.002,-0.640
-0.716,0.022,-0.662
-0.685,0.046,-0.636
-0.603,0.044,-0.595
-0.614,-0.009,-0.586
-0.659,-0.002,-0.702
-0.815,-0.061,-0.728
-0.870,-0.063,-0.730
-0.781,-0.083,-0.811
-0.695,-0.043,-0.753
-0.635,-0.032,-0.678
-0.705,-0.057,-0.525
-1.321,-0.245,-0.459
-1.428,-0.148,-0.470
-1.513,0.192,-0.701
-0.902,-0.392,-0.636
-0.900,-0.404,-0.296
-0.782,-0.188,-0.057
-0.724,-0.147,-0.118
-0.741,-0.203,-0.123
-0.777,-0.251,-0.281
-0.888,-0.639,-0.622
-0.915,-0.659,-0.655
-0.800,-0.399,-0.485
-0.735,-0.213,-0.552
-0.813,-0.100,-0.558
-0.962,-0.062,-0.420
-0.938,-0.125,-0.456
-0.874,-0.191,-0.523
-0.788,-0.313,-0.548
-0.744,-0.280,-0.526
-0.738,-0.266,-0.506
-0.781,-0.258,-0.478
-0.815,-0.294,-0.471
-0.921,-0.235,-0.292
-0.923,-0.225,-0.295
-0.920,-0.270,-0.361
-0.894,-0.264,-0.373
-0.887,-0.260,-0.363
-0.861,-0.272,-0.369
-0.819,-0.322,-0.406
-0.812,-0.339,-0.425
-0.789,-0.333,-0.401
-0.816,-0.376,-0.425
-0.834,-0.394,-0.427
-0.862,-0.339,-0.374
-0.878,-0.318,-0.388
-0.878,-0.303,-0.412
-0.870,-0.296,-0.477
-0.854,-0.293,-0.539
-0.854,-0.289,-0.566
-0.854,-0.317,-0.696
-1.227,-0.345,-0.784
-1.087,-0.217,-0.739
-1.080,-0.126,-0.909
-1.012,0.045,-0.925
-0.913,0.155,-0.919
-0.881,0.191,-0.795
-0.973,-0.056,-0.661
-1.118,-0.309,-0.445
-1.221,-1.105,-0.166
-0.842,-0.555,-0.147
-0.737,-0.538,-0.209
-0.804,-0.356,-0.534
-0.714,-0.338,-0.544
-0.700,-0.336,-0.514
-0.747,-0.221,-0.426
-0.720,-0.075,-0.416
-0.669,-0.059,-0.448
-0.649,-0.110,-0.362
-0.722,-0.137,-0.313
-0.805,-0.117,-0.334
-0.929,-0.124,-0.304
-0.902,-0.125,-0.262
-0.887,-0.117,-0.193
-0.827,-0.062,-0.151
-0.806,0.018,-0.398
-0.829,-0.002,-0.610
-0.883,0.042,-0.752
-0.881,0.052,-0.714
-0.871,-0.029,-0.545
-0.844,-0.187,-0.521
-0.795,-0.210,-0.544
-0.740,-0.018,-0.991
-0.655,-0.001,-1.054
-0.626,0.014,-0.803
-0.844,-0.160,-0.221
-1.301,-0.247,-0.254
-1.760,0.321,-0.937
-0.748,-0.090,-0.045
-0.802,-0.093,-0.168
-0.908,-0.406,-0.550
-0.802,-0.658,-0.659
-0.752,-0.536,-0.457
-0.693,-0.366,-0.450
-0.925,-0.006,-0.438
-0.976,-0.080,-0.440
-0.858,-0.085,-0.413
-0.847,-0.150,-0.416
-0.845,-0.210,-0.427
-0.794,-0.282,-0.496
-0.796,-0.326,-0.539
-0.817,-0.269,-0.434
-0.820,-0.288,-0.427
-0.829,-0.261,-0.416
-0.848,-0.178,-0.447
-0.871,-0.174,-0.435
-0.909,-0.201,-0.371
-0.840,-0.372,-0.356
-0.767,-0.395,-0.367
-0.720,-0.406,-0.451
-0.843,-0.366,-0.498
-0.898,-0.356,-0.518
-0.860,-0.334,-0.550
-1.231,-0.515,-0.889
-1.137,-0.386,-0.832
-0.973,-0.172,-0.912
-1.055,-0.040,-0.947
-1.003,0.079,-0.929
-1.018,0.412,-0.778
-1.130,0.350,-0.702
-1.285,0.111,-0.467
-1.337,-0.875,-0.233
-1.060,-0.416,-0.080
-0.868,-0.512,-0.102
-0.719,-0.456,-0.420
-0.703,-0.309,-0.433
-0.658,-0.279,-0.453
-0.693,-0.178,-0.351
-0.727,0.018,-0.262
-0.648,0.019,-0.338
-0.557,-0.018,-0.376
-0.657,-0.107,-0.307
-0.697,-0.145,-0.254
-0.824,-0.099,-0.349
-0.834,-0.096,-0.403
-0.845,-0.092,-0.374
-0.904,-0.061,-0.282
-0.900,-0.010,-0.407
-0.912,0.001,-0.470
-0.836,0.100,-0.720
-0.787,0.147,-0.957
-0.739,0.168,-1.068
-0.813,0.043,-1.080
-0.848,-0.074,-0.894
-0.882,-0.148,-0.629
-0.605,-0.164,-0.427
-0.516,-0.072,-0.400
-0.525,-0.081,-0.363
-0.603,-0.219,-0.282
-1.545,-0.606,-0.333
-1.820,-0.192,-1.159
-1.250,0.368,-1.316
-0.816,-0.285,-0.411
-0.903,-0.252,-0.062
-0.706,-0.099,0.244
-0.921,-0.157,-0.056
-0.880,-0.725,-0.337
-0.714,-0.640,-0.238
-0.573,-0.296,-0.575
-0.768,-0.322,-0.585
-0.900,-0.130,-0.355
-0.986,-0.095,-0.238
-0.849,-0.203,-0.402
-0.795,-0.311,-0.477
-0.787,-0.328,-0.475
-0.833,-0.315,-0.483
-0.831,-0.324,-0.515
-0.796,-0.380,-0.412
-0.805,-0.367,-0.294
-0.866,-0.325,-0.288
-0.959,-0.265,-0.292
-0.973,-0.249,-0.310
-0.963,-0.249,-0.309
-0.888,-0.420,-0.314
-0.895,-0.487,-0.400
-0.880,-0.442,-0.404
-0.891,-0.342,-0.486
-0.954,-0.222,-0.488
-0.946,-0.212,-0.508
-0.813,-0.248,-0.530
-1.073,-0.410,-0.737
-0.941,-0.229,-0.689
-0.821,-0.028,-0.799
-0.959,0.120,-0.916
-0.986,0.202,-0.921
-0.989,0.301,-0.818
-1.269,0.060,-0.487
-1.324,-0.198,-0.346
-1.299,-1.152,-0.289
-1.159,-0.446,0.124
-1.003,-0.243,-0.081
-0.747,-0.142,-0.374
-0.729,-0.111,-0.439
-0.752,0.020,-0.383
-0.690,0.044,-0.304
-0.667,-0.063,-0.298
-0.736,-0.101,-0.132
-0.767,-0.117,-0.093
-0.795,-0.124,-0.100
-0.781,-0.127,-0.182
-0.805,-0.077,-0.200
-0.821,-0.026,-0.247
-0.857,0.119,-0.421
-0.909,0.190,-0.731
-0.908,0.215,-0.832
-0.740,0.131,-0.898
-0.718,-0.040,-0.832
-0.739,-0.030,-0.811
-0.878,0.159,-0.859
-0.780,-0.044,-0.582
-0.669,-0.118,-0.398
-1.148,-0.311,-0.315
-1.172,-0.053,-0.556
-1.291,0.192,-0.589
-0.899,-0.243,-0.897
-0.811,-0.366,-0.146
-0.822,-0.364,0.079
-0.704,-0.133,-0.034
-0.858,0.093,-0.133
-0.961,-0.122,-0.318
-0.853,-0.651,-0.578
-0.803,-0.666,-0.575
-0.692,-0.551,-0.493
-0.716,-0.378,-0.347
-0.939,-0.223,-0.227
-1.009,-0.153,-0.286
-0.955,-0.090,-0.342
-0.944,-0.133,-0.374
-0.904,-0.191,-0.386
-0.812,-0.282,-0.389
-0.810,-0.336,-0.411
-0.833,-0.309,-0.399
-0.879,-0.281,-0.338
-0.932,-0.236,-0.316
-0.950,-0.238,-0.304
-0.926,-0.297,-0.290
-0.858,-0.415,-0.271
-0.849,-0.443,-0.296
-0.811,-0.476,-0.372
-0.837,-0.401,-0.404
-0.872,-0.331,-0.401
-0.913,-0.280,-0.453
-1.115,-0.281,-0.467
-1.029,-0.208,-0.423
-1.079,-0.277,-0.648
-1.105,-0.150,-0.664
-1.039,-0.042,-0.652
-1.007,0.206,-0.631
-1.050,0.174,-0.542
-1.084,0.080,-0.454
-1.142,-0.119,-0.252
-1.073,-0.378,-0.027
-1.131,-0.030,-0.066
-1.076,-0.203,-0.171
-0.918,-0.069,-0.271
-0.902,0.037,-0.396
-0.896,0.014,-0.296
-0.751,-0.126,-0.174
-0.738,-0.152,-0.158
-0.699,-0.068,-0.126
-0.682,-0.035,-0.239
-0.701,-0.013,-0.264
-0.726,-0.006,-0.299
-0.780,0.056,-0.322
-0.822,0.073,-0.357
-0.854,-0.021,-0.335
-0.859,0.165,-0.413
-0.874,0.055,-0.430
-0.877,0.023,-0.851
-0.819,0.113,-0.851
-0.881,-0.093,-0.934
-1.054,-0.216,-1.012
-0.914,0.274,-0.952
-1.047,0.686,-0.358
-0.877,-0.534,0.176
-0.850,-0.611,0.070
-1.042,-0.406,0.115
-1.046,-0.282,-0.575
-0.839,-0.020,-0.782
-0.809,0.083,-0.672
-0.722,-0.241,-0.545
-0.886,-0.446,-0.336
-0.936,-0.461,-0.373
-0.985,-0.261,-0.394
-1.011,-0.160,-0.469
-0.959,-0.157,-0.484
-0.783,-0.282,-0.407
-0.784,-0.361,-0.423
-0.760,-0.381,-0.435
-0.792,-0.341,-0.454
-0.865,-0.251,-0.497
-0.877,-0.223,-0.497
-0.926,-0.279,-0.462
-0.906,-0.263,-0.394
-0.886,-0.266,-0.381
-0.845,-0.335,-0.393
-0.777,-0.305,-0.516
-0.771,-0.319,-0.481
-0.743,-0.283,-0.501
-0.643,-0.154,-0.558
-0.751,-0.019,-0.451
-1.022,0.065,-0.411
-1.357,0.089,-0.226
-1.634,-0.119,-0.519
-1.592,-0.112,-0.593
-1.258,-0.183,-0.442
-0.935,-0.061,-0.329
-0.897,-0.065,-0.274
-0.889,-0.033,-0.316
-0.981,0.336,-0.433
-0.959,0.382,-0.288
-0.827,0.099,-0.296
-0.820,-0.120,-0.243
-0.749,-0.281,-0.257
-0.696,-0.365,-0.416
-0.722,-0.144,-0.236
-0.653,-0.133,-0.426
-0.653,-0.074,-0.551
-0.709,-0.025,-0.751
-0.682,0.083,-0.753
-0.699,-0.002,-0.672
-0.615,0.028,-0.760
-0.718,0.157,-0.853
-0.769,0.183,-0.879
-0.705,0.150,-0.953
-0.530,0.127,-0.869
-0.428,0.095,-0.835
-1.316,0.136,-0.507
-1.165,-0.105,-0.368
-1.249,-0.112,-0.416
-1.016,-0.166,-0.584
-0.766,-0.176,-0.430
-0.765,-0.134,-0.303
-0.711,0.176,-0.047
-1.032,0.127,-0.043
-1.052,-0.148,-0.231
-0.990,-0.628,-0.528
-0.819,-0.680,-0.612
-0.738,-0.589,-0.603
-0.629,-0.423,-0.493
-0.705,-0.340,-0.524
-0.852,-0.238,-0.420
-1.011,-0.097,-0.397
-0.953,-0.091,-0.398
-0.970,-0.138,-0.312
-0.929,-0.242,-0.322
-0.847,-0.272,-0.345
-0.814,-0.370,-0.519
-0.815,-0.378,-0.494
-0.826,-0.331,-0.457
-0.867,-0.264,-0.423
-0.887,-0.263,-0.406
-0.910,-0.293,-0.431
-0.849,-0.234,-0.423
-0.899,-0.175,-0.392
-0.843,-0.321,-0.376
-0.809,-0.365,-0.404
-0.745,-0.398,-0.465
-0.775,-0.345,-0.479
-0.900,-0.252,-0.427
-1.016,-0.279,-0.411
-0.958,-0.303,-0.427
-1.133,-0.312,-0.652
-1.076,0.083,-0.961
-1.156,0.121,-0.726
-1.495,-0.152,0.047
-1.293,-0.186,0.104
-0.945,-0.351,-0.093
-0.752,-0.141,-0.538
-0.757,-0.005,-0.486
-0.691,0.082,-0.362
-0.661,-0.067,-0.237
-0.584,-0.025,-0.234
-0.487,-0.043,-0.382
-0.527,-0.084,-0.304
-0.558,-0.115,-0.223
-0.694,-0.115,-0.188
-0.792,-0.037,-0.336
-0.818,-0.068,-0.397
-0.849,-0.002,-0.452
-1.026,0.320,-0.616
-0.679,-0.053,-0.952
-0.654,0.000,-1.174
-0.854,0.357,-1.535
-1.424,-0.181,-0.669
-1.158,0.214,-0.189
-1.146,-0.203,-0.116
-1.338,0.254,-0.378
-1.034,-0.072,-0.561
-0.732,-0.394,-0.355
-0.699,-0.471,-0.223
-0.648,-0.447,-0.231
-0.856,0.047,-0.248
-0.918,-0.148,-0.413
-0.909,-0.433,-0.546
-0.864,-0.503,-0.559
-0.853,-0.357,-0.416
-0.806,-0.271,-0.368
-0.862,-0.119,-0.273
-0.915,-0.185,-0.408
-0.743,-0.308,-0.443
-0.727,-0.334,-0.455
-0.761,-0.326,-0.450
-0.817,-0.265,-0.528
-0.813,-0.260,-0.562
-0.805,-0.287,-0.491
-0.807,-0.291,-0.380
-0.832,-0.300,-0.343
-0.944,-0.248,-0.309
-1.001,-0.245,-0.312
-0.995,-0.250,-0.332
-0.919,-0.382,-0.294
-0.844,-0.472,-0.290
-0.850,-0.424,-0.347
-0.979,-0.288,-0.423
-0.976,-0.236,-0.467
-0.920,-0.242,-0.480
-0.791,-0.322,-0.557
-1.123,-0.381,-0.804
-1.059,-0.155,-0.762
-0.942,0.031,-0.949
-0.940,0.127,-1.139
-0.904,0.237,-1.088
-1.137,0.211,-0.613
-1.275,-0.202,-0.300
-1.349,-0.909,-0.163
-1.326,-0.312,-0.117
-0.773,-0.414,-0.193
-0.625,-0.272,-0.383
-0.739,-0.105,-0.535
-0.686,-0.070,-0.328
-0.662,-0.112,-0.312
-0.687,-0.127,-0.121
-0.740,-0.070,-0.103
-0.732,-0.081,-0.167
-0.800,-0.063,-0.252
-0.855,-0.003,-0.190
-0.932,0.083,-0.228
-1.089,0.315,-0.515
-0.915,0.378,-0.822
-0.780,0.286,-0.972
-0.701,-0.048,-1.179
-0.708,0.123,-1.234
-0.708,0.185,-1.081
-0.731,-0.035,-0.204
-1.222,-0.593,-0.084
-1.288,-0.477,-0.116
-1.819,0.655,-0.306
-0.700,-0.477,-0.824
-0.790,-0.545,-0.223
-0.654,-0.302,-0.222
-0.661,-0.125,-0.228
-0.745,-0.040,-0.161
-0.894,-0.219,-0.340
-0.830,-0.572,-0.648
-0.789,-0.568,-0.648
-0.736,-0.376,-0.556
-0.906,-0.054,-0.308
-0.990,-0.055,-0.276
-0.909,-0.091,-0.426
-0.728,-0.361,-0.501
-0.760,-0.330,-0.487
-0.885,-0.310,-0.408
-0.844,-0.340,-0.325
-0.823,-0.337,-0.304
-0.875,-0.316,-0.278
-0.928,-0.303,-0.325
-0.959,-0.276,-0.347
-1.029,-0.177,-0.348
-0.962,-0.378,-0.407
-0.878,-0.390,-0.488
-0.841,-0.265,-0.634
-0.960,-0.153,-0.607
-0.965,-0.162,-0.620
-1.107,-0.130,-0.819
-0.988,0.020,-0.855
-0.900,0.069,-0.946
-0.886,0.233,-1.128
-0.944,0.311,-0.813
-1.156,0.170,-0.723
-1.606,-0.842,-0.074
-1.564,-0.439,0.181
-1.220,-0.512,-0.029
-0.683,-0.367,-0.192
-0.679,-0.175,-0.524
-0.631,-0.157,-0.601
-0.686,0.057,-0.461
-0.663,-0.067,-0.326
-0.597,-0.038,-0.301
-0.559,-0.114,-0.222
-0.596,-0.117,-0.155
-0.610,-0.089,-0.162
-0.742,-0.108,-0.037
-0.818,-0.108,-0.140
-0.841,-0.093,-0.194
-0.881,0.007,-0.275
-0.980,0.260,-0.707
-0.675,-0.112,-1.212
-0.871,0.053,-1.218
-0.857,0.442,-1.244
-0.790,0.080,-0.376
-1.324,-0.158,-0.011
-1.145,-0.572,-0.082
-1.602,0.221,-0.495
-1.773,0.440,-0.979
-0.698,-0.330,-0.528
-0.711,-0.371,0.037
-0.583,-0.271,0.248
-0.719,-0.039,0.071
-0.997,-0.092,-0.188
-0.955,-0.485,-0.447
-0.856,-0.724,-0.729
-0.593,-0.381,-0.677
-0.466,-0.238,-0.712
-1.011,-0.065,-0.244
-1.003,-0.099,-0.271
-0.926,-0.172,-0.302
-0.832,-0.285,-0.289
-0.772,-0.284,-0.394
-0.783,-0.316,-0.429
-0.845,-0.273,-0.440
-0.903,-0.279,-0.411
-0.842,-0.326,-0.356
-0.872,-0.337,-0.383
-0.912,-0.294,-0.422
-0.977,-0.201,-0.426
-0.996,-0.272,-0.402
-0.948,-0.336,-0.427
-0.855,-0.316,-0.633
-0.904,-0.211,-0.616
-0.874,-0.196,-0.595
-1.208,-0.128,-0.844
-0.917,0.130,-0.924
-0.854,0.174,-1.054
-0.966,0.345,-1.125
-0.931,0.277,-0.892
-1.041,0.160,-0.774
-1.598,-0.641,0.340
-1.617,-0.417,0.092
-1.106,-0.360,0.010
-0.659,-0.301,-0.348
-0.728,-0.018,-0.638
-0.748,-0.015,-0.588
-0.737,0.042,-0.510
-0.682,0.124,-0.234
-0.631,0.141,-0.123
-0.561,0.006,-0.127
-0.571,-0.074,-0.079
-0.578,-0.103,0.000
-0.675,-0.070,0.010
-0.766,0.017,-0.235
-0.824,0.000,-0.349
-0.976,0.157,-0.499
-1.037,0.403,-0.771
-0.931,0.394,-0.974
-0.622,-0.017,-1.298
-0.794,-0.027,-1.230
-0.801,0.279,-1.285
-0.725,0.391,-0.949
-1.263,-0.249,0.097
-1.156,-0.526,0.201
-1.472,0.016,-0.241
-1.314,0.798,-1.432
-0.750,-0.228,-0.907
-0.788,-0.491,0.123
-0.640,-0.421,0.020
-0.637,-0.319,-0.044
-0.908,0.299,-0.065
-0.838,-0.816,-0.782
-0.838,-0.715,-0.696
-0.759,-0.456,-0.547
-0.758,-0.103,-0.439
-0.926,-0.102,-0.270
-0.981,-0.126,-0.308
-0.851,-0.241,-0.422
-0.799,-0.350,-0.465
-0.846,-0.298,-0.432
-0.904,-0.255,-0.426
-0.851,-0.315,-0.370
-0.818,-0.351,-0.327
-0.812,-0.347,-0.305
-0.996,-0.204,-0.345
-1.076,-0.176,-0.374
-1.015,-0.279,-0.378
-0.794,-0.465,-0.431
-0.731,-0.451,-0.524
-0.792,-0.297,-0.619
-0.890,-0.165,-0.534
-0.924,-0.183,-0.627
-1.150,-0.101,-0.716
-1.021,0.004,-0.808
-1.023,0.046,-0.974
-0.876,0.277,-0.875
-0.942,0.210,-0.676
-1.051,0.171,-0.660
-1.266,-0.516,-0.327
-1.314,-0.248,-0.115
-0.695,-0.091,-0.341
-0.693,-0.066,-0.199
-0.622,-0.092,-0.166
-0.570,-0.120,-0.179
-0.637,-0.135,-0.169
-0.802,-0.057,-0.072
-0.859,-0.038,-0.229
-0.853,-0.002,-0.392
-0.916,0.083,-0.713
-0.820,0.032,-0.788
-0.751,0.087,-0.900
-0.759,-0.007,-1.064
-0.820,-0.004,-1.057
-0.932,0.147,-1.004
-0.795,-0.061,-0.560
-0.671,-0.095,-0.428
-0.799,-0.253,-0.244
-1.183,-0.355,-0.149
-1.427,-0.112,-0.439
-1.669,0.527,-0.935
-0.742,-0.394,-0.535
-0.831,-0.388,-0.030
-0.740,-0.305,0.185
-0.684,0.061,0.061
-0.842,0.109,-0.060
-0.914,-0.765,-0.671
-0.802,-0.467,-0.466
-0.924,-0.128,-0.302
-0.996,-0.081,-0.296
-0.939,-0.143,-0.368
-0.831,-0.208,-0.401
-0.851,-0.372,-0.375
-0.840,-0.357,-0.403
-0.810,-0.347,-0.408
-0.833,-0.388,-0.320
-0.850,-0.385,-0.312
-0.926,-0.305,-0.286
-1.018,-0.197,-0.316
-1.051,-0.223,-0.325
-0.966,-0.360,-0.388
-0.844,-0.439,-0.492
-0.807,-0.425,-0.556
-0.863,-0.264,-0.577
-0.913,-0.265,-0.671
-1.146,-0.258,-0.798
-1.015,0.031,-0.732
-0.987,0.097,-0.887
-0.992,0.156,-0.985
-0.953,0.263,-0.779
-1.116,0.160,-0.632
-1.302,-0.131,-0.349
-1.382,-1.455,0.174
-1.480,-0.248,-0.026
-1.007,-0.325,-0.057
-0.668,-0.159,-0.419
-0.662,-0.063,-0.631
-0.731,0.057,-0.591
-0.747,0.096,-0.354
-0.717,0.070,-0.220
-0.659,0.047,-0.220
-0.570,0.012,-0.158
-0.622,-0.067,-0.096
-0.639,-0.079,-0.074
-0.713,-0.099,-0.156
-0.778,-0.110,-0.336
-0.802,-0.072,-0.399
-0.939,0.097,-0.557
-0.884,0.159,-0.722
-0.832,0.156,-0.854
-0.718,-0.028,-1.034
-0.787,0.080,-1.301
-0.854,0.260,-1.394
-0.919,0.333,-1.110
-0.849,0.211,-0.462
-1.156,0.071,-0.125
-1.178,-0.166,-0.242
-1.235,0.202,-0.538
-1.340,0.466,-0.744
-0.931,-0.122,-0.732
-0.737,-0.426,0.064
-0.661,-0.432,0.058
-0.704,-0.046,-0.069
-0.982,0.063,-0.266
-1.065,-0.432,-0.490
-0.833,-0.655,-0.557
-0.675,-0.589,-0.497
-0.646,-0.515,-0.547
-0.836,-0.137,-0.428
-1.018,-0.071,-0.262
-1.006,-0.130,-0.288
-0.962,-0.179,-0.310
-0.861,-0.237,-0.301
-0.841,-0.315,-0.308
-0.869,-0.389,-0.308
-0.912,-0.346,-0.252
-0.906,-0.340,-0.282
-0.884,-0.406,-0.327
-0.872,-0.441,-0.324
-0.883,-0.433,-0.321
-0.905,-0.275,-0.310
-0.983,-0.164,-0.271
-0.991,-0.247,-0.265
-0.930,-0.413,-0.301
-0.797,-0.479,-0.319
-0.771,-0.506,-0.345
-0.762,-0.560,-0.405
-0.748,-0.490,-0.379
-0.706,-0.300,-0.342
-1.078,-0.145,-0.379
-1.281,-0.068,-0.346
-1.219,0.040,-0.365
-1.197,-0.084,-0.479
-1.132,-0.092,-0.407
-1.117,-0.052,-0.294
-1.071,-0.147,-0.036
-1.114,-0.067,0.054
-1.102,0.058,-0.105
-1.083,-0.031,-0.195
-1.033,-0.015,-0.306
-1.001,0.017,-0.398
-0.915,0.126,-0.277
-0.859,0.016,-0.308
-0.841,-0.027,-0.319
-0.864,-0.017,-0.191
-0.786,0.003,-0.145
-0.767,0.014,-0.150
-0.794,0.028,-0.178
-0.813,-0.018,-0.240
-0.813,-0.013,-0.304
-0.824,-0.007,-0.427
-0.899,0.014,-0.449
-0.895,0.052,-0.380
-0.879,0.018,-0.357
-0.913,-0.072,-0.409
-0.875,-0.005,-0.434
-0.714,-0.120,-0.661
-0.657,0.044,-0.691
-0.647,0.080,-0.769
-0.694,-0.145,-0.851
-0.709,-0.190,-0.811
-0.700,-0.139,-0.699
-1.177,0.670,-0.706
-1.118,0.122,-0.963
-1.119,-0.074,-0.421
-0.868,-0.145,-0.008
-0.888,-0.251,-0.106
-0.960,-0.270,-0.124
-1.036,-0.123,-0.288
-0.879,-0.296,-0.370
-0.850,-0.324,-0.371
-0.802,-0.439,-0.515
-0.844,-0.466,-0.576
-0.865,-0.420,-0.580
-0.908,-0.233,-0.458
-1.004,-0.185,-0.313
-0.972,-0.228,-0.332
-0.859,-0.291,-0.335
-0.866,-0.332,-0.401
-0.861,-0.328,-0.438
-0.849,-0.299,-0.424
-0.884,-0.304,-0.358
-0.878,-0.311,-0.353
-0.863,-0.387,-0.411
-0.825,-0.485,-0.506
-0.801,-0.477,-0.496
-0.821,-0.363,-0.418
-0.863,-0.326,-0.402
-0.869,-0.344,-0.429
-0.825,-0.388,-0.479
-0.773,-0.405,-0.518
-0.780,-0.378,-0.540
-0.812,-0.275,-0.548
-0.863,-0.278,-0.507
-0.844,-0.306,-0.515
-0.812,-0.287,-0.521
-0.827,-0.212,-0.493
-0.845,-0.192,-0.480
-0.880,-0.285,-0.534
-1.143,-0.292,-0.603
-1.279,-0.248,-0.654
-1.135,-0.049,-0.694
-0.989,0.052,-0.664
-1.063,0.209,-0.643
-1.099,0.209,-0.575
-1.220,-0.101,-0.279
-1.169,-0.439,-0.095
-1.064,-0.007,-0.025
-1.071,-0.426,-0.050
-0.974,-0.258,-0.176
-0.954,-0.054,-0.514
-0.648,-0.160,-0.297
-0.674,-0.092,-0.321
-0.614,0.017,-0.397
-0.678,-0.007,-0.359
-0.673,0.010,-0.408
-0.722,-0.054,-0.413
-0.677,-0.136,-0.401
-0.728,-0.096,-0.433
-0.889,0.080,-0.581
-0.900,0.127,-0.473
-0.872,0.183,-0.582
-0.723,0.343,-0.931
-0.702,0.078,-1.073
-0.711,0.142,-1.146
-0.636,0.150,-1.073
-1.363,-0.100,-0.461
-1.532,-0.185,-0.254
-1.313,0.108,-0.172
-1.051,0.150,-0.757
-0.776,-0.332,-0.606
-0.803,-0.438,0.061
-0.762,-0.315,0.038
-0.883,-0.280,-0.091
-1.041,0.050,-0.314
-0.851,-0.549,-0.569
-0.822,-0.655,-0.611
-0.704,-0.548,-0.499
-0.673,-0.272,-0.518
-0.794,-0.190,-0.421
-1.018,0.004,-0.325
-0.943,-0.055,-0.398
-0.847,-0.104,-0.411
-0.829,-0.262,-0.450
-0.796,-0.388,-0.441
-0.785,-0.389,-0.447
-0.767,-0.301,-0.517
-0.838,-0.256,-0.417
-0.845,-0.284,-0.365
-0.868,-0.324,-0.312
-0.907,-0.287,-0.319
-0.944,-0.229,-0.315
-0.960,-0.227,-0.332
-0.906,-0.344,-0.328
-0.875,-0.407,-0.349
-0.836,-0.512,-0.568
-0.786,-0.439,-0.650
-0.802,-0.385,-0.603
-1.077,-0.327,-0.766
-1.069,-0.105,-0.635
-1.032,-0.074,-0.688
-1.073,0.042,-0.856
-0.906,0.226,-0.751
-0.852,0.268,-0.670
-1.020,0.108,-0.451
-1.214,-0.318,-0.280
-1.115,-1.390,0.108
-0.999,-0.194,-0.193
-0.851,-0.163,-0.325
-0.782,-0.067,-0.556
-0.717,0.065,-0.459
-0.785,-0.024,-0.244
-0.691,0.003,-0.116
-0.667,-0.012,-0.135
-0.706,-0.036,-0.122
-0.703,-0.117,-0.159
-0.934,0.059,-0.401
-0.783,0.108,-1.085
-0.761,-0.048,-1.212
-0.748,0.043,-1.384
-0.668,0.076,-0.765
-1.176,-0.425,-0.023
-1.256,-0.052,-0.086
-1.776,0.958,-1.131
-0.608,-0.426,-0.162
-0.756,-0.344,0.005
-0.785,-0.273,0.092
-0.871,0.053,0.020
-1.015,0.101,-0.150
-0.912,-0.853,-0.777
-0.520,-0.538,-0.610
-0.996,-0.095,-0.329
-1.078,-0.065,-0.237
-0.905,-0.161,-0.386
-0.816,-0.185,-0.399
-0.814,-0.243,-0.402
-0.809,-0.328,-0.327
-0.900,-0.325,-0.346
-0.892,-0.306,-0.353
-0.885,-0.377,-0.296
-0.884,-0.385,-0.247
-0.926,-0.351,-0.256
-0.998,-0.209,-0.378
-1.065,-0.101,-0.437
-1.053,-0.152,-0.388
-0.840,-0.378,-0.454
-0.785,-0.409,-0.610
-0.818,-0.362,-0.649
-1.050,-0.307,-0.771
-1.093,-0.181,-0.772
-0.999,-0.069,-0.765
-0.937,0.077,-0.932
-0.859,0.312,-0.950
-0.794,0.325,-0.803
-0.909,0.245,-0.569
-1.319,-0.352,-0.353
-1.325,-0.850,-0.220
-1.546,-0.445,0.146
-1.030,-0.132,-0.173
-0.810,-0.069,-0.400
-0.717,-0.049,-0.639
-0.719,0.052,-0.476
-0.756,0.077,-0.417
-0.769,0.043,-0.258
-0.618,0.009,-0.098
-0.639,-0.001,-0.068
-0.608,-0.092,-0.010
-0.659,-0.067,-0.043
-0.709,-0.051,-0.094
-0.885,0.097,-0.212
-0.979,0.172,-0.194
-1.016,0.173,-0.292
-1.008,0.396,-0.822
-0.719,0.001,-1.197
-0.686,-0.191,-1.181
-0.656,-0.137,-1.175
-0.624,0.190,-1.208
-0.761,0.269,-1.127
-1.072,-0.233,-0.262
-1.086,0.040,-0.359
-0.764,-0.241,0.016
-0.691,-0.205,0.173
-0.856,-0.207,-0.014
-0.990,0.162,-0.326
-1.068,-0.062,-0.523
-0.827,-0.808,-0.854
-0.507,-0.575,-0.705
-0.420,-0.455,-0.743
-0.643,-0.334,-0.469
-1.028,-0.162,-0.208
-0.993,-0.127,-0.251
-0.847,-0.082,-0.440
-0.840,-0.125,-0.426
-0.812,-0.187,-0.372
-0.819,-0.360,-0.389
-0.793,-0.377,-0.431
-0.820,-0.377,-0.422
-0.877,-0.338,-0.309
-0.875,-0.350,-0.267
-0.803,-0.494,-0.467
-0.768,-0.468,-0.557
-0.866,-0.302,-0.533
-1.120,-0.065,-0.899
-1.020,0.048,-0.941
-0.804,0.258,-0.888
-1.512,-0.537,0.038
-1.280,-0.242,-0.177
-0.797,-0.218,-0.330
-0.771,-0.132,-0.460
-0.725,-0.073,-0.472
-0.758,-0.015,-0.355
-0.816,-0.028,-0.185
-0.722,-0.086,-0.114
-0.634,-0.055,-0.132
-0.632,-0.030,-0.084
-0.663,-0.008,-0.076
-0.752,-0.029,-0.145
-0.757,-0.072,-0.287
-0.770,-0.039,-0.305
-0.939,0.060,-0.484
-0.912,0.248,-0.959
-0.816,0.126,-1.052
-0.658,-0.149,-1.037
-0.693,-0.127,-0.946
-0.684,0.048,-1.009
-0.821,0.219,-0.819
-1.480,-0.172,-0.144
-1.356,-0.359,-0.071
-1.209,0.174,-0.376
-1.459,0.523,-1.029
-1.081,0.117,-1.104
-0.795,-0.468,-0.052
-0.835,-0.334,0.125
-0.727,-0.312,0.020
-0.819,-0.392,-0.245
-0.905,-0.442,-0.570
-0.837,-0.557,-0.670
-0.736,-0.536,-0.483
-0.543,-0.350,-0.662
-0.658,-0.159,-0.662
-0.940,-0.103,-0.382
-0.940,-0.159,-0.365
-0.876,-0.123,-0.459
-0.755,-0.185,-0.481
-0.810,-0.305,-0.415
-0.822,-0.339,-0.396
-0.810,-0.367,-0.430
-0.803,-0.383,-0.394
-0.799,-0.383,-0.346
-0.821,-0.368,-0.312
-0.879,-0.278,-0.344
-0.951,-0.205,-0.362
-1.078,-0.147,-0.370
-1.004,-0.332,-0.339
-0.909,-0.403,-0.399
-0.844,-0.385,-0.625
-0.868,-0.336,-0.620
-0.951,-0.330,-0.716
-1.078,-0.162,-0.767
-0.996,0.075,-0.926
-0.985,0.158,-0.955
-0.913,0.268,-0.928
-0.862,0.214,-0.872
-0.979,0.179,-0.759
-1.333,-0.985,-0.152
-1.495,-0.417,0.106
-1.130,-0.403,0.012
-0.728,-0.117,-0.565
-0.759,-0.144,-0.639
-0.721,-0.026,-0.440
-0.746,0.037,-0.205
-0.688,0.059,-0.177
-0.566,0.023,-0.177
-0.577,-0.057,-0.173
-0.600,-0.104,-0.142
-0.655,-0.108,-0.118
-0.984,0.204,-0.593
-0.923,0.274,-0.727
-0.776,0.267,-1.085
-0.679,-0.147,-1.207
-0.700,-0.072,-1.087
-0.839,0.355,-1.127
-0.875,0.275,-0.597
-1.591,-0.059,-0.379
-1.108,-0.477,-0.129
-1.169,0.064,-0.435
-1.346,0.435,-0.843
-0.786,-0.352,-0.117
-0.635,-0.422,0.087
-0.725,-0.438,0.079
-0.747,-0.041,-0.040
-1.016,-0.060,-0.329
-0.944,-0.570,-0.573
-0.836,-0.588,-0.706
-0.733,-0.430,-0.419
-0.648,-0.423,-0.405
-0.929,-0.188,-0.344
-0.881,-0.164,-0.324
-0.922,-0.089,-0.332
-0.857,-0.167,-0.318
-0.824,-0.281,-0.365
-0.836,-0.358,-0.417
-0.842,-0.362,-0.411
-0.885,-0.319,-0.397
-0.949,-0.277,-0.293
-0.974,-0.215,-0.269
-1.012,-0.194,-0.357
-0.889,-0.369,-0.366
-0.817,-0.400,-0.394
-0.832,-0.392,-0.504
-0.838,-0.392,-0.555
-0.831,-0.343,-0.579
-0.787,-0.252,-0.613
-1.237,-0.174,-0.690
-1.029,-0.022,-0.682
-0.985,0.176,-1.030
-0.949,0.346,-0.956
-0.953,0.406,-0.715
-1.296,-0.049,-0.429
-1.455,-0.464,-0.255
-1.561,-0.489,0.083
-1.261,-0.315,0.026
-1.099,-0.350,0.035
-0.755,-0.089,-0.433
-0.669,-0.056,-0.604
-0.749,0.050,-0.482
-0.772,0.054,-0.265
-0.644,0.131,-0.203
-0.564,0.041,-0.224
-0.554,-0.033,-0.194
-0.658,-0.138,-0.112
-0.702,-0.164,-0.135
-0.781,-0.103,-0.219
-0.845,-0.048,-0.251
-0.905,0.026,-0.245
-0.993,0.199,-0.512
-0.919,0.229,-0.813
-0.794,0.251,-0.935
-0.670,-0.020,-1.128
-0.736,0.107,-1.149
-0.739,0.269,-1.140
-0.906,0.330,-0.843
-1.283,-0.053,-0.197
-1.152,-0.231,-0.133
-1.114,0.088,-0.231
-1.019,0.280,-0.882
-0.801,-0.227,-0.416
-0.752,-0.379,-0.070
-0.822,-0.398,-0.123
-0.829,-0.294,-0.212
-0.860,0.011,-0.283
-0.854,-0.575,-0.691
-0.816,-0.575,-0.652
-0.756,-0.446,-0.430
-0.857,-0.264,-0.220
-0.993,-0.088,-0.348
-0.932,-0.103,-0.316
-0.889,-0.227,-0.304
-0.833,-0.362,-0.390
-0.830,-0.387,-0.397
-0.843,-0.367,-0.370
-0.858,-0.343,-0.382
-0.844,-0.355,-0.382
-0.859,-0.396,-0.341
-0.903,-0.336,-0.365
-0.931,-0.264,-0.376
-0.982,-0.136,-0.352
-0.963,-0.305,-0.323
-0.910,-0.366,-0.322
-0.826,-0.436,-0.364
-0.771,-0.471,-0.456
-0.745,-0.443,-0.512
-0.886,-0.236,-0.439
-0.996,-0.167,-0.444
-1.209,-0.238,-0.500
-1.051,-0.164,-0.535
-1.080,-0.043,-0.728
-1.016,0.054,-0.693
-0.874,0.298,-0.607
-1.149,0.236,-0.432
-1.250,0.151,-0.374
-1.295,-0.629,-0.090
-1.375,-0.014,0.208
-1.269,-0.061,0.049
-0.854,-0.242,-0.345
-0.798,-0.086,-0.597
-0.844,0.103,-0.638
-0.786,0.131,-0.425
-0.682,0.011,-0.226
-0.734,-0.003,-0.169
-0.676,0.038,-0.183
-0.755,0.081,-0.120
-0.938,-0.072,-0.385
-0.939,-0.087,-0.386
-0.899,-0.126,-0.326
-0.834,-0.098,-0.440
-0.809,-0.018,-0.483
-0.770,0.102,-0.655
-0.846,0.177,-0.812
-0.862,0.169,-0.912
-0.765,0.068,-0.941
-0.668,-0.276,-0.805
-1.194,0.154,-0.051
-0.966,-0.140,-0.123
-0.973,-0.072,-0.225
-0.982,-0.125,-0.374
-0.792,-0.097,-0.375
-0.720,-0.185,-0.379
-0.857,-0.387,-0.371
-1.068,-0.462,-0.397
-1.069,-0.420,-0.405
-0.952,-0.327,-0.366
-0.886,-0.314,-0.392
-0.830,-0.324,-0.406
-0.857,-0.321,-0.414
-0.865,-0.277,-0.404
-0.865,-0.256,-0.386
-0.914,-0.242,-0.319
-0.927,-0.224,-0.292
-0.936,-0.227,-0.246
-0.924,-0.334,-0.358
-0.858,-0.456,-0.505
-0.832,-0.459,-0.523
-0.792,-0.429,-0.526
-0.780,-0.375,-0.504
-0.799,-0.360,-0.504
-0.828,-0.387,-0.528
-0.829,-0.317,-0.565
-0.824,-0.157,-0.579
-0.862,-0.326,-0.375
-0.844,-0.348,-0.383
-0.850,-0.366,-0.407
-0.858,-0.397,-0.404
-0.860,-0.393,-0.430
-0.844,-0.371,-0.443
-0.765,-0.339,-0.467
-0.708,-0.305,-0.475
-0.662,-0.278,-0.493
-0.562,-0.222,-0.523
-0.839,-0.211,-0.506
-0.992,-0.094,-0.453
-1.428,-0.082,-0.524
-1.542,0.022,-0.508
-1.469,0.055,-0.407
-1.199,0.016,-0.386
-0.905,-0.141,-0.507
-0.896,-0.202,-0.413
-0.975,-0.178,-0.183
-1.011,0.151,-0.217
-1.014,0.001,-0.146
-1.010,-0.050,-0.193
-0.839,-0.169,-0.230
-0.700,-0.266,-0.367
-0.681,-0.266,-0.310
-0.600,-0.150,-0.333
-0.604,-0.093,-0.408
-0.593,-0.061,-0.491
-0.610,-0.007,-0.627
-0.664,0.052,-0.601
-0.734,0.041,-0.514
-0.786,0.058,-0.438
-0.861,0.026,-0.447
-0.916,0.066,-0.525
-0.839,-0.054,-0.422
-0.844,0.002,-0.647
-0.924,0.064,-0.669
-0.906,0.149,-0.441
-1.327,0.211,-0.609
-0.859,-0.502,-0.192
-0.888,-0.349,-0.027
-0.897,-0.098,-0.085
-0.953,0.040,-0.199
-0.959,-0.020,-0.358
-0.868,-0.362,-0.467
-0.863,-0.651,-0.372
-0.835,-0.645,-0.319
-0.771,-0.486,-0.352
-0.798,-0.311,-0.381
-0.869,-0.198,-0.352
-0.973,-0.068,-0.291
-0.937,-0.218,-0.322
-0.853,-0.392,-0.315
-0.823,-0.394,-0.366
-0.807,-0.388,-0.437
-0.813,-0.415,-0.477
-0.811,-0.393,-0.456
-0.843,-0.305,-0.424
-0.887,-0.239,-0.411
-0.935,-0.221,-0.397
-0.887,-0.351,-0.399
-0.854,-0.409,-0.366
-0.829,-0.413,-0.344
-0.910,-0.357,-0.377
-1.010,-0.338,-0.407
-1.022,-0.341,-0.403
-0.888,-0.325,-0.456
-0.865,-0.270,-0.447
-0.847,-0.250,-0.452
-0.845,-0.252,-0.565
-1.089,-0.257,-0.655
-0.977,-0.140,-0.674
-1.026,-0.021,-0.917
-0.884,0.208,-0.895
-0.802,0.321,-0.798
-0.936,0.223,-0.543
-1.283,-0.049,-0.184
-1.349,-0.620,-0.075
-1.345,-0.462,0.033
-1.060,-0.422,-0.108
-0.924,-0.304,-0.236
-0.811,-0.081,-0.569
-0.782,-0.002,-0.445
-0.823,0.006,-0.260
-0.808,-0.035,-0.273
-0.653,0.040,-0.368
-0.609,0.008,-0.366
-0.641,-0.009,-0.163
-0.734,-0.071,-0.086
-0.752,-0.116,-0.134
-0.787,-0.051,-0.322
-0.882,-0.006,-0.260
-0.944,0.063,-0.221
-0.962,0.246,-0.708
-0.898,0.258,-0.901
-0.764,0.103,-0.989
-0.609,-0.018,-1.035
-0.647,0.050,-1.290
-0.596,0.214,-1.211
-0.935,0.057,-0.585
-1.236,-0.509,-0.073
-1.226,-0.467,-0.146
-1.388,0.452,-0.615
-0.920,0.146,-0.723
-0.786,-0.299,-0.269
-0.799,-0.297,0.032
-0.926,-0.164,-0.124
-0.988,0.017,-0.117
-1.007,-0.163,-0.459
-0.807,-0.658,-0.603
-0.735,-0.622,-0.523
-0.706,-0.442,-0.373
-0.637,-0.323,-0.400
-0.814,-0.138,-0.417
-1.013,-0.023,-0.341
-0.899,-0.153,-0.368
-0.848,-0.212,-0.419
-0.798,-0.306,-0.441
-0.768,-0.398,-0.473
-0.768,-0.343,-0.488
-0.874,-0.279,-0.481
-0.827,-0.307,-0.347
-0.946,-0.218,-0.306
-1.016,-0.167,-0.317
-1.012,-0.255,-0.301
-0.848,-0.480,-0.328
-0.803,-0.529,-0.324
-0.882,-0.412,-0.515
-0.987,-0.224,-0.499
-0.971,-0.203,-0.493
-1.198,-0.247,-0.621
-1.000,-0.181,-0.576
-0.949,-0.190,-0.637
-0.966,-0.080,-0.809
-0.863,0.174,-0.830
-0.767,0.267,-0.780
-0.922,0.255,-0.584
-1.159,-0.049,-0.322
-1.169,-0.410,-0.273
-1.358,-0.431,-0.013
-1.055,-0.421,-0.268
-0.944,-0.286,-0.348
-0.799,-0.055,-0.498
-0.829,-0.019,-0.424
-0.800,0.000,-0.319
-0.758,-0.049,-0.285
-0.631,0.008,-0.349
-0.618,0.024,-0.325
-0.670,-0.018,-0.200
-0.713,-0.061,-0.178
-0.740,-0.072,-0.236
-0.828,-0.056,-0.352
-0.846,-0.055,-0.223
-0.890,0.326,-0.662
-0.760,0.357,-0.849
-0.775,0.101,-1.355
-0.743,0.243,-1.407
-0.734,0.230,-1.189
-0.907,0.048,-0.394
-1.238,-0.772,0.079
-1.452,-0.360,-0.004
-1.738,0.601,-0.493
-0.642,-0.116,-0.577
-0.686,-0.358,-0.219
-0.709,-0.392,0.100
-0.892,-0.154,-0.015
-0.975,0.009,-0.091
-0.969,-0.345,-0.584
-0.854,-0.659,-0.740
-0.634,-0.453,-0.565
-0.744,-0.191,-0.451
-0.944,-0.097,-0.365
-0.948,-0.051,-0.397
-0.859,-0.162,-0.414
-0.833,-0.182,-0.386
-0.836,-0.258,-0.356
-0.885,-0.345,-0.365
-0.895,-0.330,-0.368
-0.899,-0.305,-0.383
-0.827,-0.444,-0.274
-0.813,-0.463,-0.287
-0.913,-0.333,-0.225
-1.092,-0.125,-0.390
-1.091,-0.106,-0.416
-1.005,-0.211,-0.440
-0.816,-0.384,-0.520
-0.760,-0.414,-0.613
-0.752,-0.305,-0.680
-1.044,-0.258,-0.831
-1.128,-0.131,-0.772
-0.954,0.057,-0.755
-1.001,0.284,-1.001
-1.245,-0.054,-0.413
-1.383,-0.433,-0.358
-1.718,-0.631,0.093
-1.140,-0.331,0.000
-0.844,-0.294,0.001
-0.785,0.055,-0.542
-0.688,0.006,-0.562
-0.691,0.061,-0.501
-0.707,0.031,-0.382
-0.603,-0.077,-0.223
-0.614,-0.165,0.062
-0.652,-0.155,0.084
-0.796,-0.073,-0.068
-0.908,0.047,-0.214
-0.990,0.092,-0.242
-1.073,0.283,-0.504
-0.990,0.338,-1.050
-0.798,0.219,-1.268
-0.733,-0.142,-1.083
-0.656,0.106,-1.128
-0.713,0.370,-1.203
-0.920,0.197,-0.629
-1.177,-0.585,0.075
-1.204,-0.075,-0.312
-1.234,0.136,-1.139
-0.782,-0.469,-0.545
-0.760,-0.432,0.182
-0.737,-0.335,0.109
-0.776,-0.271,0.056
-0.975,-0.314,-0.419
-0.896,-0.721,-0.750
-0.927,-0.697,-0.688
-0.652,-0.399,-0.601
-0.518,-0.205,-0.618
-0.646,-0.202,-0.500
-0.937,-0.140,-0.288
-0.909,-0.146,-0.414
-0.884,-0.184,-0.406
-0.784,-0.247,-0.415
-0.810,-0.330,-0.376
-0.874,-0.327,-0.388
-0.780,-0.398,-0.357
-0.784,-0.432,-0.319
-0.857,-0.377,-0.255
-0.989,-0.118,-0.285
-1.060,-0.065,-0.325
-1.058,-0.254,-0.311
-0.827,-0.461,-0.414
-0.789,-0.489,-0.483
-0.854,-0.330,-0.589
-0.894,-0.281,-0.525
-1.166,-0.320,-0.687
-1.049,-0.101,-0.639
-1.144,-0.089,-0.795
-1.186,-0.029,-0.852
-0.916,0.131,-0.897
-0.901,0.194,-0.600
-1.368,-0.207,-0.011
-0.813,-0.171,-0.524
-0.746,-0.153,-0.505
-0.700,-0.050,-0.416
-0.738,-0.110,-0.301
-0.764,-0.104,-0.254
-0.650,-0.014,-0.218
-0.644,-0.098,-0.195
-0.711,-0.142,-0.234
-0.723,-0.071,-0.254
-0.830,-0.039,-0.236
-0.981,0.201,-0.524
-0.944,0.311,-0.719
-0.744,0.323,-0.907
-0.664,-0.020,-1.079
-0.811,-0.081,-1.120
-0.791,0.358,-1.412
-0.980,0.038,-0.668
-1.298,-0.244,-0.251
-1.646,-0.603,-0.252
-1.578,0.714,-0.700
-0.780,0.045,-0.728
-0.688,-0.374,0.026
-0.674,-0.206,0.234
-0.775,-0.158,0.109
-0.854,-0.112,-0.183
-0.953,-0.385,-0.746
-0.876,-0.662,-0.853
-0.619,-0.373,-0.650
-0.574,-0.208,-0.533
-0.732,-0.195,-0.369
-0.972,-0.059,-0.249
-0.934,-0.199,-0.356
-0.905,-0.162,-0.360
-0.858,-0.221,-0.270
-0.833,-0.297,-0.305
-0.845,-0.357,-0.333
-0.876,-0.399,-0.370
-0.850,-0.377,-0.306
-0.831,-0.353,-0.268
-0.875,-0.301,-0.191
-1.038,-0.117,-0.386
-1.079,-0.100,-0.387
-0.997,-0.266,-0.387
-0.760,-0.446,-0.542
-0.799,-0.248,-0.671
-1.163,-0.212,-0.794
-1.157,0.036,-0.747
-1.103,0.095,-1.042
-1.043,0.189,-1.084
-0.860,0.341,-0.917
-1.315,-0.167,-0.340
-0.731,-0.106,-0.682
-0.717,-0.090,-0.626
-0.778,-0.045,-0.177
-0.715,0.000,-0.107
-0.640,0.039,-0.161
-0.586,0.065,-0.119
-0.619,-0.074,-0.085
-0.646,-0.088,-0.102
-0.799,-0.023,-0.206
-0.839,0.086,-0.165
-0.890,0.121,-0.179
-0.970,0.149,-0.368
-0.967,0.363,-0.919
-0.855,0.397,-1.147
-0.643,-0.221,-1.283
-0.523,0.199,-1.525
-1.537,-0.280,-0.298
-1.518,-0.090,-0.188
-1.199,0.389,-0.631
-0.666,-0.287,-0.077
-0.687,-0.185,0.117
-0.770,-0.268,0.101
-0.817,-0.022,-0.109
-0.894,-0.135,-0.497
-0.855,-0.716,-0.976
-0.730,-0.539,-0.572
-0.596,-0.393,-0.560
-0.707,-0.198,-0.442
-0.967,-0.066,-0.232
-0.976,-0.094,-0.264
-0.865,-0.169,-0.354
-0.780,-0.242,-0.386
-0.752,-0.302,-0.369
-0.838,-0.367,-0.409
-0.890,-0.357,-0.415
-0.887,-0.356,-0.391
-0.830,-0.329,-0.315
-0.840,-0.378,-0.283
-0.927,-0.343,-0.318
-1.001,-0.161,-0.427
-1.038,-0.130,-0.413
-1.008,-0.213,-0.402
-0.840,-0.383,-0.460
-0.806,-0.356,-0.640
-0.835,-0.277,-0.649
-0.896,-0.171,-0.633
-1.148,-0.154,-0.817
-1.251,-0.086,-0.829
-0.992,0.128,-0.881
-0.991,0.247,-0.997
-0.944,0.293,-0.923
-0.985,0.105,-0.570
-1.484,-0.569,-0.239
-1.353,-1.121,-0.087
-1.384,-0.480,0.063
-0.813,-0.136,-0.278
-0.774,-0.093,-0.413
-0.747,-0.062,-0.615
-0.735,-0.010,-0.516
-0.743,0.012,-0.321
-0.732,-0.031,-0.155
-0.632,-0.093,-0.215
-0.611,-0.117,-0.210
-0.643,-0.105,0.002
-0.717,-0.085,0.023
-0.732,-0.078,-0.018
-0.784,-0.073,-0.105
-0.973,0.147,-0.321
-1.011,0.283,-0.568
-0.853,0.323,-1.183
-1.360,0.220,-0.760
-1.584,-0.205,-0.511
-1.437,0.167,-0.390
-1.017,0.391,-0.771
-0.712,-0.121,-0.498
-0.769,-0.304,-0.024
-0.598,-0.394,-0.002
-0.690,-0.468,-0.058
-0.704,-0.269,-0.138
-1.006,-0.452,-0.688
-0.930,-0.544,-0.714
-0.808,-0.359,-0.384
-0.843,-0.204,-0.319
-0.875,-0.184,-0.387
-0.952,-0.090,-0.373
-0.967,-0.178,-0.316
-0.861,-0.243,-0.283
-0.798,-0.350,-0.341
-0.800,-0.428,-0.358
-0.774,-0.434,-0.402
-0.800,-0.409,-0.455
-0.813,-0.361,-0.370
-0.805,-0.359,-0.363
-0.842,-0.322,-0.382
-0.920,-0.199,-0.432
-0.948,-0.164,-0.488
-0.932,-0.328,-0.452
-0.874,-0.374,-0.418
-0.838,-0.385,-0.397
-0.851,-0.438,-0.373
-0.927,-0.367,-0.446
-0.951,-0.323,-0.470
-0.905,-0.286,-0.469
-1.071,-0.335,-0.599
-0.914,-0.087,-0.751
-0.902,-0.021,-0.812
-0.847,0.121,-0.934
-0.839,0.317,-0.890
-0.962,0.213,-0.800
-1.302,-0.146,-0.404
-1.313,-0.632,0.098
-1.296,-0.404,-0.073
-0.984,-0.356,-0.273
-0.825,-0.203,-0.421
-0.832,-0.092,-0.603
-0.752,-0.111,-0.383
-0.752,-0.167,-0.139
-0.645,-0.090,-0.218
-0.609,0.013,-0.210
-0.647,-0.028,-0.152
-0.732,-0.051,-0.122
-0.888,-0.040,-0.108
-0.944,0.119,-0.127
-0.925,0.066,-0.077
-0.957,0.142,-0.572
-0.925,0.097,-0.833
-0.782,-0.066,-1.177
-0.776,-0.171,-1.103
-0.616,-0.056,-1.047
-1.318,0.125,-0.942
-1.547,-0.004,-0.547
-1.484,-0.202,-0.440
-1.262,-0.076,-0.401
-0.883,-0.169,-0.345
-0.780,-0.290,-0.188
-0.597,-0.180,-0.002
-0.777,-0.084,-0.113
-0.859,-0.016,-0.178
-1.035,-0.325,-0.403
-0.945,-0.576,-0.492
-0.895,-0.469,-0.427
-0.833,-0.385,-0.243
-0.898,-0.421,-0.292
-0.880,-0.365,-0.341
-0.856,-0.215,-0.569
-0.890,-0.238,-0.377
-0.912,-0.245,-0.330
-0.869,-0.311,-0.317
-0.884,-0.339,-0.284
-0.921,-0.335,-0.331
-0.972,-0.275,-0.370
-0.961,-0.278,-0.366
-0.965,-0.306,-0.359
-0.924,-0.322,-0.344
-0.904,-0.357,-0.347
-0.908,-0.366,-0.367
-0.878,-0.371,-0.424
-0.834,-0.388,-0.357
-0.819,-0.404,-0.332
-0.775,-0.378,-0.374
-0.868,-0.189,-0.305
-0.882,-0.166,-0.273
-1.023,-0.142,-0.234
-1.176,-0.071,-0.024
-1.195,-0.135,-0.044
-1.380,-0.170,0.061
-1.481,0.198,0.023
-1.278,0.200,-0.209
-0.804,-0.313,-0.350
-0.753,-0.336,-0.242
-0.793,-0.218,-0.350
-0.869,-0.024,-0.362
-0.841,-0.001,-0.528
-0.847,-0.030,-0.623
-0.784,-0.066,-0.753
-0.752,-0.013,-0.675
-0.771,-0.044,-0.604
-0.802,-0.040,-0.447
-0.843,-0.053,-0.354
-0.854,-0.078,-0.332
-0.923,0.036,-0.283
-1.086,0.266,-0.236
-1.098,0.164,-0.233
-1.047,-0.105,-0.086
-1.010,-0.130,-0.244
-0.950,-0.110,-0.280
-0.835,-0.001,-0.584
-0.610,-0.062,-0.680
-0.587,-0.005,-0.596
-0.613,0.052,-0.578
-0.593,0.019,-0.583
-0.688,0.020,-0.589
-1.440,0.231,-1.193
-0.865,0.086,-0.626
-1.146,0.412,-0.014
-1.057,-0.053,0.110
-0.867,-0.412,-0.177
-0.847,-0.456,-0.241
-0.809,-0.595,-0.551
-0.679,-0.517,-0.697
-0.690,-0.428,-0.754
-0.793,-0.326,-0.590
-0.969,-0.280,-0.381
-1.000,-0.265,-0.346
-0.991,-0.213,-0.313
-0.968,-0.225,-0.278
-0.930,-0.240,-0.305
-0.832,-0.319,-0.407
-0.779,-0.366,-0.510
-0.783,-0.365,-0.557
-0.786,-0.300,-0.611
-0.797,-0.227,-0.624
-0.819,-0.233,-0.573
-0.833,-0.246,-0.490
-0.833,-0.246,-0.483
-0.844,-0.261,-0.468
-0.883,-0.281,-0.421
-0.874,-0.314,-0.413
-0.856,-0.336,-0.420
-0.828,-0.367,-0.442
-0.882,-0.410,-0.468
-0.890,-0.412,-0.468
-0.844,-0.374,-0.521
-0.827,-0.310,-0.623
-0.817,-0.267,-0.658
-1.078,-0.299,-0.675
-1.214,-0.108,-0.649
-1.174,-0.065,-0.722
-1.000,0.036,-0.732
-0.954,0.330,-0.658
-1.068,0.369,-0.570
-1.233,-0.085,-0.217
-1.197,-0.029,0.007
-1.196,-0.135,0.017
-1.157,-0.354,0.009
-0.955,-0.153,-0.187
-0.917,-0.092,-0.418
-0.928,0.118,-0.482
-0.700,-0.089,-0.376
-0.653,-0.151,-0.362
-0.652,-0.093,-0.325
-0.651,-0.033,-0.339
-0.653,-0.011,-0.355
-0.654,0.008,-0.399
-0.664,-0.006,-0.382
-0.676,-0.002,-0.406
-0.689,-0.059,-0.438
-0.809,-0.047,-0.292
-0.892,0.186,-0.249
-1.012,0.228,-0.366
-0.894,0.264,-0.521
-0.842,0.334,-0.756
-0.767,0.052,-1.249
-0.670,0.223,-1.420
-0.886,0.168,-1.469
-1.417,-0.065,-0.731
-1.013,-0.252,-0.013
-1.208,-0.211,-0.080
-0.761,-0.256,-0.145
-0.751,-0.286,0.011
-0.683,-0.279,-0.008
-0.773,-0.375,-0.191
-0.832,-0.228,-0.307
-0.946,-0.115,-0.500
-0.854,-0.559,-0.687
-0.809,-0.407,-0.406
-0.793,-0.336,-0.326
-0.797,-0.273,-0.300
-0.829,-0.222,-0.441
-0.848,-0.138,-0.506
-0.893,-0.152,-0.378
-0.877,-0.203,-0.387
-0.859,-0.257,-0.391
-0.818,-0.344,-0.359
-0.751,-0.376,-0.389
-0.851,-0.378,-0.398
-0.823,-0.358,-0.373
-0.868,-0.366,-0.333
-0.896,-0.311,-0.352
-0.915,-0.195,-0.406
-0.922,-0.190,-0.427
-0.891,-0.247,-0.404
-0.826,-0.372,-0.413
-0.832,-0.416,-0.513
-0.839,-0.398,-0.604
-0.898,-0.289,-0.581
-0.906,-0.299,-0.661
-1.136,-0.305,-0.758
-1.035,-0.094,-0.763
-1.077,0.053,-1.025
-0.975,0.125,-1.005
-0.879,0.310,-0.764
-1.138,0.242,-0.502
-1.337,-0.081,-0.310
-1.367,-0.481,0.239
-1.216,-0.186,-0.041
-0.942,-0.066,-0.257
-0.857,-0.108,-0.549
-0.675,-0.033,-0.558
-0.658,-0.071,-0.491
-0.714,-0.095,-0.203
-0.689,-0.057,-0.108
-0.630,-0.045,-0.144
-0.644,-0.048,-0.247
-0.671,-0.110,-0.122
-0.737,-0.104,-0.090
-0.752,-0.003,-0.261
-0.775,0.031,-0.309
-0.849,0.075,-0.339
-0.980,0.257,-0.447
-0.942,0.364,-0.816
-0.777,0.344,-0.954
-0.752,-0.093,-1.115
-0.680,-0.011,-1.042
-1.240,0.213,-1.153
-1.552,-0.208,-0.403
-1.207,-0.176,-0.064
-0.719,-0.180,-0.267
-0.591,-0.307,-0.043
-0.565,-0.265,0.061
-0.796,-0.372,-0.055
-0.843,-0.162,-0.204
-0.921,0.029,-0.348
-0.932,-0.468,-0.656
-0.845,-0.133,-0.426
-0.960,-0.030,-0.386
-0.878,-0.222,-0.369
-0.837,-0.248,-0.335
-0.832,-0.365,-0.326
-0.813,-0.375,-0.343
-0.832,-0.361,-0.390
-0.845,-0.290,-0.357
-0.846,-0.296,-0.363
-0.877,-0.312,-0.366
-0.913,-0.265,-0.392
-0.968,-0.285,-0.421
-0.925,-0.339,-0.402
-0.782,-0.416,-0.468
-0.829,-0.411,-0.513
-0.868,-0.357,-0.471
-0.963,-0.261,-0.549
-0.860,-0.172,-0.640
-0.939,0.059,-0.923
-0.896,0.133,-1.053
-0.753,0.324,-1.175
-1.005,0.330,-0.871
-1.270,0.158,-0.644
-1.499,-1.261,-0.195
-1.664,-0.383,0.153
-1.475,-0.391,0.068
-0.799,-0.173,-0.428
-0.689,-0.184,-0.607
-0.652,-0.146,-0.613
-0.688,-0.034,-0.315
-0.685,0.000,-0.254
-0.644,0.028,-0.260
-0.580,-0.021,-0.278
-0.550,-0.099,-0.145
-0.582,-0.091,-0.078
-0.665,-0.129,-0.070
-0.799,-0.081,-0.285
-0.829,-0.028,-0.335
-1.043,0.140,-0.367
-1.129,0.488,-0.705
-1.007,0.551,-0.825
-0.661,-0.118,-1.142
-0.822,-0.036,-1.200
-0.852,0.087,-1.201
-0.696,0.269,-0.978
-1.108,-0.350,0.061
-1.407,0.519,-0.574
-1.106,0.229,-1.112
-0.902,-0.491,-0.227
-0.754,-0.504,-0.141
-0.625,-0.414,-0.163
-0.877,0.235,-0.068
-0.950,-0.449,-0.527
-0.864,-0.612,-0.783
-0.798,-0.478,-0.544
-0.642,-0.332,-0.501
-0.654,-0.160,-0.567
-0.916,-0.036,-0.503
-0.931,-0.108,-0.384
-0.872,-0.173,-0.408
-0.808,-0.193,-0.436
-0.757,-0.318,-0.430
-0.854,-0.373,-0.353
-0.843,-0.315,-0.290
-0.940,-0.244,-0.336
-0.962,-0.180,-0.352
-1.009,-0.166,-0.346
-0.962,-0.311,-0.320
-0.908,-0.434,-0.346
-0.831,-0.518,-0.599
-0.856,-0.398,-0.684
-0.870,-0.274,-0.553
-1.256,-0.231,-0.661
-1.017,-0.126,-0.681
-0.944,-0.164,-0.810
-0.874,0.019,-0.970
-0.785,0.193,-0.991
-0.788,0.269,-0.973
-0.962,0.273,-0.817
-1.344,-0.233,-0.307
-1.321,-0.954,-0.141
-1.449,-0.409,0.006
-0.976,-0.323,-0.218
-0.785,-0.255,-0.349
-0.738,-0.040,-0.636
-0.732,0.051,-0.450
-0.731,-0.022,-0.340
-0.664,-0.039,-0.301
-0.625,-0.012,-0.246
-0.598,-0.024,-0.245
-0.617,-0.067,-0.180
-0.694,-0.119,-0.130
-0.732,-0.100,-0.199
-0.773,-0.051,-0.339
-0.833,-0.035,-0.297
-0.883,0.011,-0.197
-1.014,0.328,-0.589
-0.829,0.300,-0.861
-0.713,0.173,-1.073
-0.792,-0.052,-1.225
-0.699,0.407,-1.289
-0.738,0.353,-1.068
-1.177,0.020,-0.215
-0.860,-0.268,-0.143
-0.675,-0.271,-0.064
-0.822,0.049,-0.050
-1.010,-0.588,-0.614
-0.772,-0.674,-0.730
-0.682,-0.497,-0.610
-0.500,-0.233,-0.590
-0.875,-0.103,-0.388
-0.988,-0.117,-0.343
-0.978,-0.161,-0.355
-0.805,-0.159,-0.447
-0.769,-0.215,-0.444
-0.795,-0.336,-0.371
-0.821,-0.354,-0.368
-0.823,-0.332,-0.389
-0.843,-0.321,-0.414
-0.838,-0.365,-0.312
-0.847,-0.349,-0.297
-0.910,-0.306,-0.310
-1.015,-0.151,-0.379
-0.830,-0.450,-0.470
-0.774,-0.498,-0.627
-0.808,-0.349,-0.702
-0.894,-0.264,-0.687
-1.179,-0.249,-0.813
-1.042,0.003,-0.763
-0.998,0.132,-0.970
-1.001,0.185,-0.968
-0.909,0.320,-0.850
-1.008,0.142,-0.553
-1.137,0.017,-0.415
-1.272,-1.271,-0.131
-1.596,-0.485,0.103
-1.236,-0.410,0.032
-0.792,-0.199,-0.383
-0.651,-0.065,-0.707
-0.664,-0.039,-0.633
-0.717,0.013,-0.340
-0.677,-0.018,-0.299
-0.598,-0.043,-0.242
-0.601,-0.020,-0.116
-0.579,-0.061,-0.078
-0.744,-0.083,-0.074
-0.720,-0.095,-0.116
-0.841,0.018,-0.270
-0.929,0.081,-0.354
-0.969,0.121,-0.422
-0.967,0.200,-0.712
-0.910,0.152,-0.768
-0.675,0.015,-1.086
-0.694,-0.027,-1.253
-0.771,0.068,-1.248
-0.868,0.283,-1.017
-0.959,0.060,-0.318
-1.621,-0.301,-0.110
-1.138,-0.264,-0.192
-1.226,0.346,-1.036
-0.696,-0.427,0.056
-0.717,-0.393,-0.036
-0.772,-0.010,-0.089
-1.037,-0.295,-0.616
-0.830,-0.821,-0.793
-0.819,-0.551,-0.549
-0.634,-0.496,-0.528
-0.548,-0.426,-0.554
-0.819,-0.194,-0.404
-0.943,-0.113,-0.376
-0.952,-0.160,-0.430
-0.875,-0.134,-0.447
-0.788,-0.238,-0.398
-0.791,-0.293,-0.354
-0.823,-0.347,-0.293
-0.896,-0.333,-0.302
-0.901,-0.318,-0.304
-0.862,-0.362,-0.307
-0.852,-0.375,-0.273
-0.874,-0.377,-0.269
-0.943,-0.240,-0.333
-0.959,-0.237,-0.382
-0.932,-0.290,-0.387
-0.791,-0.441,-0.397
-0.769,-0.487,-0.572
-0.774,-0.413,-0.590
-0.851,-0.285,-0.526
-1.146,-0.320,-0.668
-1.202,-0.238,-0.615
-1.128,-0.097,-0.634
-1.116,-0.060,-0.770
-1.087,0.000,-0.816
-0.897,0.137,-0.901
-0.938,0.220,-0.708
-0.977,0.074,-0.522
-1.248,-0.223,-0.223
-1.142,-1.011,0.088
-1.318,-0.396,-0.006
-1.019,-0.221,-0.238
-0.844,-0.095,-0.526
-0.730,-0.053,-0.565
-0.783,-0.091,-0.482
-0.669,-0.058,-0.294
-0.655,-0.065,-0.299
-0.608,-0.036,-0.228
-0.611,-0.049,-0.216
-0.631,-0.067,-0.199
-0.720,-0.091,-0.214
-0.754,-0.061,-0.264
-0.764,-0.082,-0.305
-0.864,0.005,-0.209
-0.915,0.107,-0.337
-1.018,0.261,-0.621
-0.694,0.233,-1.075
-0.697,0.063,-1.199
-0.725,-0.008,-1.180
-0.760,0.209,-1.113
-0.851,0.186,-0.762
-0.899,0.032,-0.290
-1.381,-0.659,-0.142
-1.379,0.049,-0.074
-1.257,0.526,-0.388
-0.945,0.220,-0.896
-0.775,-0.426,-0.001
-0.922,0.013,-0.141
-0.951,-0.315,-0.378
-0.849,-0.650,-0.676
-0.797,-0.460,-0.390
-0.714,-0.331,-0.480
-0.776,-0.069,-0.515
-0.914,-0.082,-0.316
-0.927,-0.115,-0.299
-0.839,-0.239,-0.462
-0.781,-0.268,-0.471
-0.783,-0.305,-0.461
-0.837,-0.336,-0.406
-0.801,-0.354,-0.445
-0.777,-0.354,-0.447
-0.789,-0.325,-0.407
-0.872,-0.302,-0.372
-0.907,-0.258,-0.367
-0.932,-0.168,-0.365
-0.950,-0.169,-0.357
-0.926,-0.252,-0.353
-0.797,-0.427,-0.353
-0.788,-0.504,-0.477
-0.794,-0.455,-0.564
-0.804,-0.276,-0.532
-1.046,-0.330,-0.675
-1.162,-0.268,-0.707
-1.045,0.122,-0.769
-1.057,0.124,-0.874
-1.015,0.186,-0.862
-1.034,0.223,-0.767
-0.983,0.010,-0.695
-1.060,-0.169,-0.514
-1.057,-1.023,0.035
-0.687,-0.173,-0.545
-0.720,-0.122,-0.472
-0.805,-0.021,-0.308
-0.693,-0.009,-0.121
-0.596,-0.019,-0.236
-0.660,-0.063,-0.251
-0.666,-0.085,-0.267
-0.732,-0.050,-0.285
-0.794,-0.012,-0.222
-0.815,-0.040,-0.198
-0.848,0.034,-0.364
-0.837,0.037,-0.531
-0.771,0.158,-0.641
-0.687,0.103,-1.095
-0.894,0.133,-1.589
-0.676,0.044,-0.324
-0.572,-0.119,0.028
-1.450,-0.467,0.005
-1.704,0.268,-0.517
-1.359,0.605,-0.740
-0.899,-0.129,-1.204
-0.778,-0.385,-0.178
-0.654,-0.245,-0.005
-0.736,-0.101,0.028
-0.828,-0.005,-0.097
-0.908,-0.267,-0.315
-0.872,-0.819,-0.660
-0.884,-0.551,-0.312
-0.814,-0.474,-0.283
-0.699,-0.204,-0.428
-0.921,-0.082,-0.386
-0.943,-0.144,-0.367
-0.889,-0.173,-0.393
-0.853,-0.231,-0.406
-0.831,-0.323,-0.415
-0.853,-0.371,-0.327
-0.881,-0.345,-0.342
-0.885,-0.345,-0.385
-0.862,-0.308,-0.387
-0.887,-0.311,-0.361
-0.908,-0.327,-0.347
-0.946,-0.239,-0.346
-0.992,-0.208,-0.332
-0.977,-0.280,-0.343
-0.903,-0.337,-0.296
-0.824,-0.415,-0.322
-0.798,-0.451,-0.407
-0.828,-0.481,-0.514
-0.919,-0.293,-0.356
-0.945,-0.320,-0.334
-0.867,-0.288,-0.415
-0.761,-0.295,-0.480
-0.734,-0.238,-0.490
-0.654,-0.094,-0.409
-1.031,-0.190,-0.518
-1.018,-0.086,-0.519
-0.971,0.051,-0.503
-1.401,-0.081,-0.704
-1.358,0.017,-0.602
-1.159,-0.230,-0.450
-0.972,-0.596,0.059
-1.068,-0.210,-0.008
-0.988,-0.120,0.019
-0.884,-0.008,-0.164
-0.858,0.119,-0.350
-0.841,0.209,-0.447
-0.909,0.148,-0.369
-0.945,0.100,-0.283
-0.911,0.066,-0.215
-0.985,-0.022,-0.113
-0.955,-0.032,-0.051
-0.922,0.046,-0.103
-0.924,0.089,-0.263
-0.922,0.065,-0.316
-0.924,-0.013,-0.393
-0.894,-0.040,-0.420
-0.887,-0.036,-0.482
-0.893,0.044,-0.476
-0.869,-0.017,-0.448
-0.843,-0.059,-0.493
-0.863,-0.107,-0.582
-0.742,-0.132,-0.784
-0.707,-0.194,-0.875
-0.647,0.021,-0.765
-0.751,0.249,-0.610
-0.713,0.229,-0.644
-0.724,0.232,-0.672
-0.707,-0.074,-0.600
-0.650,-0.146,-0.573
-0.889,0.215,-0.285
-1.209,-0.129,-0.611
-1.091,0.061,-0.033
-1.171,0.028,-0.015
-0.945,-0.220,-0.330
-0.803,-0.323,-0.288
-0.848,-0.345,-0.271
-0.898,-0.361,-0.327
-0.892,-0.337,-0.520
-0.886,-0.282,-0.467
-0.954,-0.253,-0.345
-0.935,-0.325,-0.331
-0.929,-0.347,-0.362
-0.904,-0.344,-0.409
-0.867,-0.261,-0.435
-0.879,-0.224,-0.400
-0.914,-0.288,-0.358
-0.861,-0.374,-0.353
-0.834,-0.379,-0.360
-0.810,-0.447,-0.466
-0.770,-0.484,-0.582
-0.779,-0.477,-0.614
-0.762,-0.344,-0.570
-0.819,-0.236,-0.516
-0.864,-0.244,-0.510
-0.891,-0.315,-0.428
-0.854,-0.333,-0.461
-0.846,-0.352,-0.456
-0.833,-0.351,-0.427
-0.827,-0.366,-0.406
-0.833,-0.386,-0.419
-0.861,-0.409,-0.466
-0.895,-0.391,-0.487
-0.896,-0.365,-0.503
-0.817,-0.233,-0.519
-0.813,-0.276,-0.505
-0.806,-0.284,-0.522
-0.950,-0.326,-0.645
-1.104,-0.113,-0.616
-1.172,0.078,-0.661
-1.139,0.154,-0.770
-1.056,0.217,-0.726
-1.038,0.232,-0.647
-1.175,0.078,-0.503
-1.195,-0.261,0.023
-0.914,-0.215,-0.052
-0.931,-0.119,-0.353
-0.848,0.025,-0.774
-0.734,0.076,-0.440
-0.707,0.007,-0.363
-0.559,-0.108,-0.301
-0.535,-0.121,-0.307
-0.532,-0.105,-0.290
-0.613,-0.011,-0.271
-0.662,0.015,-0.302
-0.678,-0.019,-0.303
-0.700,-0.048,-0.272
-0.790,-0.017,-0.264
-0.859,0.030,-0.214
-0.963,0.338,-0.721
-0.818,0.235,-0.973
-0.739,0.051,-1.126
-0.757,0.000,-1.328
-0.549,0.224,-1.567
-0.533,0.304,-1.409
-1.365,0.183,-0.685
-1.093,-0.164,0.119
-1.286,-0.047,-0.166
-0.943,0.216,-0.676
-0.807,-0.359,-0.208
-0.809,-0.391,-0.124
-0.816,-0.375,-0.304
-1.098,0.354,-0.271
-1.003,-0.086,-0.353
-0.765,-0.686,-0.659
-0.758,-0.563,-0.522
-0.808,-0.441,-0.434
-0.821,-0.300,-0.340
-0.906,-0.129,-0.351
-0.894,-0.173,-0.443
-0.866,-0.209,-0.429
-0.772,-0.325,-0.404
-0.762,-0.344,-0.388
-0.802,-0.360,-0.372
-0.854,-0.382,-0.451
-0.823,-0.391,-0.453
-0.834,-0.374,-0.404
-0.849,-0.326,-0.363
-0.863,-0.220,-0.374
-0.896,-0.191,-0.406
-0.941,-0.228,-0.440
-0.839,-0.318,-0.373
-0.792,-0.349,-0.354
-0.863,-0.401,-0.409
-0.942,-0.381,-0.447
-0.940,-0.363,-0.476
-0.886,-0.232,-0.559
-0.837,-0.278,-0.636
-1.071,-0.388,-0.805
-1.052,-0.159,-0.763
-1.094,0.144,-0.917
-1.099,0.223,-0.953
-0.822,0.389,-0.917
-1.161,0.234,-0.555
-1.269,-0.066,-0.444
-1.465,-0.956,0.239
-1.225,-0.380,-0.186
-0.920,-0.410,-0.187
-0.793,-0.128,-0.518
-0.666,-0.188,-0.608
-0.606,-0.196,-0.572
-0.695,-0.107,-0.296
-0.702,-0.058,-0.250
-0.659,0.016,-0.287
-0.569,-0.017,-0.207
-0.639,-0.059,-0.131
-0.669,-0.057,-0.088
-0.747,-0.102,-0.144
-0.859,-0.014,-0.293
-0.935,0.037,-0.324
-1.100,0.289,-0.344
-0.952,0.349,-0.793
-0.744,-0.007,-1.435
-0.554,0.198,-1.421
-0.602,0.252,-0.921
-1.302,-0.516,0.033
-1.211,-0.589,0.089
-1.179,0.074,-0.013
-1.487,0.603,-0.800
-1.001,-0.242,-0.585
-0.853,-0.383,0.037
-0.772,-0.444,-0.230
-0.688,-0.209,-0.178
-0.981,-0.144,-0.470
-0.850,-0.811,-0.727
-0.685,-0.584,-0.551
-0.806,0.079,-0.502
-0.958,-0.115,-0.370
-0.893,-0.099,-0.383
-0.886,-0.165,-0.508
-0.883,-0.205,-0.480
-0.817,-0.273,-0.409
-0.815,-0.280,-0.333
-0.839,-0.319,-0.374
-0.819,-0.377,-0.447
-0.773,-0.368,-0.431
-0.768,-0.376,-0.410
-0.803,-0.327,-0.450
-0.872,-0.157,-0.469
-0.910,-0.119,-0.437
-0.958,-0.194,-0.397
-0.823,-0.382,-0.403
-0.831,-0.468,-0.498
-0.921,-0.472,-0.612
-0.878,-0.312,-0.652
-1.178,-0.320,-0.785
-1.051,0.004,-0.710
-0.979,0.160,-0.869
-0.976,0.150,-0.870
-0.993,0.201,-0.822
-1.087,-0.312,-0.397
-1.595,-0.276,-0.008
-1.272,-0.378,-0.001
-0.703,-0.135,-0.343
-0.657,-0.062,-0.694
-0.661,-0.036,-0.681
-0.789,0.029,-0.364
-0.643,0.019,-0.195
-0.640,0.011,-0.179
-0.658,-0.006,-0.237
-0.684,-0.055,-0.260
-0.683,-0.140,-0.270
-0.761,-0.050,-0.298
-0.862,0.045,-0.163
-0.869,0.015,-0.088
-0.850,-0.042,-0.118
-0.985,0.239,-0.501
-0.941,0.318,-0.675
-0.748,0.294,-1.201
-0.740,-0.091,-1.483
-0.671,0.038,-1.467
-0.783,0.340,-1.135
-1.316,-0.325,-0.240
-1.174,-0.589,-0.071
